time_epoch_braclet acc_x acc_y acc_z gyro_x gyro_y gyro_z quat_w quat_x quat_y quat_z rssi-inCollision acc_x-inCollision acc_y-inCollision acc_z-inCollision gyro_x-inCollision gyro_y-inCollision gyro_z-inCollision quat_w-inCollision quat_x-inCollision quat_y-inCollision quat_z-inCollision bracelets-distance
1595876263.812000 -954 92 183 -41 14 5 -7.410974e-01 -2.353543e-01 -5.929633e-01 2.092309e-01 70 834 -62 -255 -911 -750 -452 -5.228348e-01 6.270843e-01 4.693672e-01 3.363086e-01 3.090570
1595876263.864000 -954 92 183 -41 14 5 -7.410974e-01 -2.353543e-01 -5.929633e-01 2.092309e-01 69 958 -165 -355 -1316 -1035 -945 -4.379842e-01 6.610657e-01 4.932816e-01 3.575406e-01 3.092924
1595876263.912000 -960 90 183 -32 -2 8 -7.413582e-01 -2.338336e-01 -5.937091e-01 2.078928e-01 68 958 -165 -355 -1316 -1035 -945 -4.379842e-01 6.610657e-01 4.932816e-01 3.575406e-01 3.093692
1595876263.966000 -960 90 183 -32 -2 8 -7.413582e-01 -2.338336e-01 -5.937091e-01 2.078928e-01 69 922 -179 -377 -1233 -687 -668 -3.527829e-01 6.844477e-01 5.100094e-01 3.833615e-01 3.088869
1595876264.012000 -959 99 177 -5 -18 -9 -7.418384e-01 -2.329155e-01 -5.936416e-01 2.074023e-01 69 1164 -179 -377 -1233 -687 -668 -3.527829e-01 6.844477e-01 5.100094e-01 3.833615e-01 3.079367
1595876264.064000 -959 99 177 -5 -18 -9 -7.418384e-01 -2.329155e-01 -5.936416e-01 2.074023e-01 72 1164 -267 -590 -998 -781 -170 -2.824070e-01 7.123347e-01 5.055495e-01 3.965417e-01 3.058466
1595876264.112000 -925 90 165 23 -23 8 -7.421499e-01 -2.320630e-01 -5.935856e-01 2.074040e-01 70 1164 -267 -590 -998 -781 -170 -2.824070e-01 7.123347e-01 5.055495e-01 3.965417e-01 3.038734
1595876264.164000 -925 90 165 23 -23 8 -7.421499e-01 -2.320630e-01 -5.935856e-01 2.074040e-01 66 758 -210 -231 168 482 419 -2.691070e-01 7.243122e-01 4.887749e-01 4.050338e-01 2.993244
1595876264.212000 -942 78 173 -21 73 -36 -7.406460e-01 -2.325390e-01 -5.953854e-01 2.070879e-01 69 758 -210 -231 168 482 419 -2.691070e-01 7.243122e-01 4.887749e-01 4.050338e-01 2.961391
1595876264.264000 -942 78 173 -21 73 -36 -7.406460e-01 -2.325390e-01 -5.953854e-01 2.070879e-01 75 1057 -212 -538 906 -279 1016 -2.991297e-01 7.443758e-01 4.702702e-01 3.677934e-01 2.921576
1595876264.312000 -970 89 211 -68 28 -100 -7.380392e-01 -2.304504e-01 -5.987681e-01 2.089677e-01 70 1057 -212 -538 906 -279 1016 -2.991297e-01 7.443758e-01 4.702702e-01 3.677934e-01 2.879935
1595876264.364000 -970 89 211 -68 28 -100 -7.380392e-01 -2.304504e-01 -5.987681e-01 2.089677e-01 80 1013 -136 -489 1333 931 1206 -3.893458e-01 7.333421e-01 4.325589e-01 3.514427e-01 2.826602
1595876264.412000 -949 106 165 60 -157 125 -7.420342e-01 -2.309582e-01 -5.933953e-01 2.095845e-01 72 1013 -136 -489 1333 931 1206 -3.893458e-01 7.333421e-01 4.325589e-01 3.514427e-01 2.807675
1595876264.464000 -949 106 165 60 -157 125 -7.420342e-01 -2.309582e-01 -5.933953e-01 2.095845e-01 68 799 -146 -356 417 824 1035 -4.681434e-01 7.193661e-01 3.791534e-01 3.458279e-01 2.762602
1595876264.512000 -918 94 164 -15 -3 51 -7.445171e-01 -2.351107e-01 -5.897298e-01 2.064848e-01 67 799 -146 -356 417 824 1035 -4.681434e-01 7.193661e-01 3.791534e-01 3.458279e-01 2.731126
1595876264.564000 -918 94 164 -15 -3 51 -7.445171e-01 -2.351107e-01 -5.897298e-01 2.064848e-01 63 814 -225 -272 -187 110 -52 -4.795498e-01 7.252145e-01 3.532079e-01 3.454565e-01 2.705981
1595876264.612000 -942 99 157 31 118 -45 -7.419998e-01 -2.345567e-01 -5.931360e-01 2.064196e-01 62 814 -225 -272 -187 110 -52 -4.795498e-01 7.252145e-01 3.532079e-01 3.454565e-01 2.685050
1595876264.664000 -942 99 157 31 118 -45 -7.419998e-01 -2.345567e-01 -5.931360e-01 2.064196e-01 67 802 -247 -289 -308 -366 -651 -4.558600e-01 7.230041e-01 3.750515e-01 3.588776e-01 2.660567
1595876264.712000 -980 87 182 -3 153 -75 -7.363340e-01 -2.335834e-01 -6.004077e-01 2.067888e-01 71 802 -247 -289 -308 -366 -651 -4.558600e-01 7.230041e-01 3.750515e-01 3.588776e-01 2.632821
1595876264.764000 -980 87 182 -3 153 -75 -7.363340e-01 -2.335834e-01 -6.004077e-01 2.067888e-01 68 908 -244 -382 -681 170 -271 -4.261565e-01 7.267000e-01 3.853231e-01 3.765949e-01 2.610936
1595876264.812000 -986 87 200 -24 20 -31 -7.340464e-01 -2.318651e-01 -6.036794e-01 2.073298e-01 71 908 -244 -382 -681 170 -271 -4.261565e-01 7.267000e-01 3.853231e-01 3.765949e-01 2.588023
1595876264.864000 -986 87 200 -24 20 -31 -7.340464e-01 -2.318651e-01 -6.036794e-01 2.073298e-01 82 1138 -230 -595 -1096 -206 9 -3.891570e-01 7.440125e-01 3.701752e-01 3.974577e-01 2.572271
1595876264.912000 -953 95 182 13 -107 44 -7.369307e-01 -2.313208e-01 -6.001524e-01 2.079446e-01 73 1138 -230 -595 -1096 -206 9 -3.891570e-01 7.440125e-01 3.701752e-01 3.974577e-01 2.553225
1595876264.964000 -953 95 182 13 -107 44 -7.369307e-01 -2.313208e-01 -6.001524e-01 2.079446e-01 69 928 -222 -380 -1325 438 80 -3.424673e-01 7.645243e-01 3.359366e-01 4.305408e-01 2.533260
1595876265.012000 -931 96 160 16 -92 67 -7.412153e-01 -2.328505e-01 -5.944249e-01 2.074597e-01 68 928 -222 -380 -1325 438 80 -3.424673e-01 7.645243e-01 3.359366e-01 4.305408e-01 2.520296
1595876265.064000 -931 96 160 16 -92 67 -7.412153e-01 -2.328505e-01 -5.944249e-01 2.074597e-01 69 699 -182 -346 -1010 616 449 -3.112906e-01 7.761513e-01 2.893782e-01 4.657762e-01 2.500100
1595876265.112000 -926 97 155 12 33 -3 -7.418943e-01 -2.341346e-01 -5.934544e-01 2.063632e-01 67 699 -182 -346 -1010 616 449 -3.112906e-01 7.761513e-01 2.893782e-01 4.657762e-01 2.478376
1595876265.164000 -926 97 155 12 33 -3 -7.418943e-01 -2.341346e-01 -5.934544e-01 2.063632e-01 67 874 -186 -444 -804 581 609 -2.963932e-01 7.860888e-01 2.368215e-01 4.879867e-01 2.465290
1595876265.212000 -969 95 174 17 74 -23 -7.387728e-01 -2.341929e-01 -5.972927e-01 2.064218e-01 66 874 -186 -444 -804 581 609 -2.963932e-01 7.860888e-01 2.368215e-01 4.879867e-01 2.449808
1595876265.266000 -969 95 174 17 74 -23 -7.387728e-01 -2.341929e-01 -5.972927e-01 2.064218e-01 68 733 -171 -272 -652 -275 178 -2.792897e-01 7.949624e-01 1.961009e-01 5.015740e-01 2.436474
1595876265.312000 -972 88 193 -13 7 -17 -7.373577e-01 -2.343725e-01 -5.990536e-01 2.061745e-01 77 850 -182 -369 -815 -275 178 -2.792897e-01 7.949624e-01 1.961009e-01 5.015740e-01 2.426450
1595876265.364000 -972 88 193 -13 7 -17 -7.373577e-01 -2.343725e-01 -5.990536e-01 2.061745e-01 79 850 -182 -369 -815 -493 -471 -2.414001e-01 8.169762e-01 1.964161e-01 4.854859e-01 2.405285
1595876265.412000 -961 100 179 19 -71 9 -7.386489e-01 -2.338261e-01 -5.972302e-01 2.074589e-01 71 850 -182 -369 -815 -493 -471 -2.414001e-01 8.169762e-01 1.964161e-01 4.854859e-01 2.374533
1595876265.464000 -961 100 179 19 -71 9 -7.386489e-01 -2.338261e-01 -5.972302e-01 2.074589e-01 85 938 -220 -295 -790 -826 -869 -1.792592e-01 8.336741e-01 2.149645e-01 4.760713e-01 2.338392
1595876265.512000 -939 100 163 16 -55 31 -7.408523e-01 -2.344995e-01 -5.941223e-01 2.077658e-01 68 938 -220 -295 -790 -826 -869 -1.792592e-01 8.336741e-01 2.149645e-01 4.760713e-01 2.307862
1595876265.566000 -939 100 163 16 -55 31 -7.408523e-01 -2.344995e-01 -5.941223e-01 2.077658e-01 74 983 -244 -384 -208 -688 -913 -1.249418e-01 8.474314e-01 2.534237e-01 4.494731e-01 2.253512
1595876265.612000 -931 95 156 1 -4 13 -7.416491e-01 -2.346226e-01 -5.932704e-01 2.072174e-01 76 1135 -242 -580 93 -1 -913 -1.249418e-01 8.474314e-01 2.534237e-01 4.494731e-01 2.217532
1595876265.664000 -931 95 156 1 -4 13 -7.416491e-01 -2.346226e-01 -5.932704e-01 2.072174e-01 76 1135 -242 -580 93 -1 -302 -1.087043e-01 8.424738e-01 2.874164e-01 4.425078e-01 2.155458
1595876265.712000 -942 94 160 -4 108 -8 -7.400487e-01 -2.353507e-01 -5.952128e-01 2.065423e-01 72 1135 -242 -580 93 -1 -302 -1.087043e-01 8.424738e-01 2.874164e-01 4.425078e-01 2.072176
1595876265.764000 -942 94 160 -4 108 -8 -7.400487e-01 -2.353507e-01 -5.952128e-01 2.065423e-01 72 947 -220 -417 806 784 798 -1.420279e-01 8.317206e-01 2.828961e-01 4.561127e-01 1.978020
1595876265.864000 -989 88 191 -29 103 -46 -7.361049e-01 -2.351141e-01 -6.002368e-01 2.063657e-01 68 974 -216 -556 1844 546 1160 -2.381040e-01 8.179524e-01 2.619083e-01 4.535024e-01 1.852854
1595876265.912000 -972 97 196 7 -24 -56 -7.354693e-01 -2.316881e-01 -6.018641e-01 2.077624e-01 64 974 -216 -556 1844 546 1160 -2.381040e-01 8.179524e-01 2.619083e-01 4.535024e-01 1.781065
1595876265.964000 -972 97 196 7 -24 -56 -7.354693e-01 -2.316881e-01 -6.018641e-01 2.077624e-01 70 896 -165 -474 2161 1323 594 -3.667521e-01 7.682324e-01 2.641543e-01 4.533590e-01 1.686400
1595876266.012000 -942 107 166 37 -115 41 -7.381660e-01 -2.312033e-01 -5.982722e-01 2.091084e-01 66 896 -165 -474 2161 1323 594 -3.667521e-01 7.682324e-01 2.641543e-01 4.533590e-01 1.650023
1595876266.064000 -942 107 166 37 -115 41 -7.381660e-01 -2.312033e-01 -5.982722e-01 2.091084e-01 64 707 -117 -389 1019 324 630 -4.558145e-01 7.219911e-01 2.675194e-01 4.465371e-01 1.577821
1595876266.112000 -921 117 126 70 -49 119 -7.408975e-01 -2.353489e-01 -5.935603e-01 2.082496e-01 65 707 -117 -389 1019 324 630 -4.558145e-01 7.219911e-01 2.675194e-01 4.465371e-01 1.543697
1595876266.164000 -921 117 126 70 -49 119 -7.408975e-01 -2.353489e-01 -5.935603e-01 2.082496e-01 66 741 -143 -366 297 147 256 -4.764519e-01 7.148000e-01 2.772894e-01 4.303082e-01 1.516893
1595876266.212000 -942 104 155 -56 132 61 -7.384038e-01 -2.420046e-01 -5.958256e-01 2.029420e-01 64 741 -143 -366 297 147 256 -4.764519e-01 7.148000e-01 2.772894e-01 4.303082e-01 1.485790
1595876266.264000 -942 104 155 -56 132 61 -7.384038e-01 -2.420046e-01 -5.958256e-01 2.029420e-01 65 855 -158 -377 -524 -315 -191 -4.585554e-01 7.265598e-01 2.839955e-01 4.256576e-01 1.469555
1595876266.312000 -958 97 194 1 133 -61 -7.345529e-01 -2.394392e-01 -6.024127e-01 2.004991e-01 66 855 -158 -377 -524 -315 -191 -4.585554e-01 7.265598e-01 2.839955e-01 4.256576e-01 1.460272
1595876266.364000 -958 97 194 1 133 -61 -7.345529e-01 -2.394392e-01 -6.024127e-01 2.004991e-01 68 1058 -172 -555 -899 -1155 -861 -4.126679e-01 7.467818e-01 3.124459e-01 4.176119e-01 1.454615
1595876266.412000 -988 95 168 -5 10 90 -7.331145e-01 -2.402413e-01 -6.042655e-01 1.992245e-01 68 1058 -172 -555 -899 -1155 -861 -4.126679e-01 7.467818e-01 3.124459e-01 4.176119e-01 1.453003
1595876266.467000 -988 95 168 -5 10 90 -7.331145e-01 -2.402413e-01 -6.042655e-01 1.992245e-01 69 1050 -192 -445 -1758 -562 -1172 -3.215212e-01 7.684040e-01 3.491081e-01 4.293053e-01 1.447376
1595876266.512000 -931 93 165 -3 -12 -16 -7.344958e-01 -2.412105e-01 -6.028432e-01 1.972653e-01 70 821 -223 -380 -1799 -450 -594 -2.162074e-01 8.000847e-01 3.530421e-01 4.341430e-01 1.443378
1595876266.564000 -931 93 165 -3 -12 -16 -7.344958e-01 -2.412105e-01 -6.028432e-01 1.972653e-01 72 821 -223 -380 -1799 -450 -594 -2.138028e-01 7.911864e-01 3.514960e-01 4.525076e-01 1.432979
1595876266.612000 -954 119 141 14 -3 -36 -7.343081e-01 -2.399273e-01 -6.030226e-01 1.989730e-01 69 821 -223 -380 -1799 -450 -594 -2.138028e-01 7.911864e-01 3.514960e-01 4.525076e-01 1.420419
1595876266.664000 -954 119 141 14 -3 -36 -7.343081e-01 -2.399273e-01 -6.030226e-01 1.989730e-01 66 974 -214 -516 -853 193 300 -1.498430e-01 8.085420e-01 3.285560e-01 4.646050e-01 1.396390
1595876266.712000 -945 129 126 71 11 43 -7.332130e-01 -2.439567e-01 -6.023540e-01 2.001336e-01 73 974 -214 -516 -853 193 300 -1.498430e-01 8.085420e-01 3.285560e-01 4.646050e-01 1.371633
1595876266.764000 -945 129 126 71 11 43 -7.332130e-01 -2.439567e-01 -6.023540e-01 2.001336e-01 75 786 -174 -287 -733 3 1032 -1.441634e-01 8.185940e-01 2.786222e-01 4.811345e-01 1.338077
1595876266.812000 -960 123 152 25 71 -6 -7.309777e-01 -2.462228e-01 -6.042651e-01 1.997737e-01 70 786 -174 -287 -733 3 1032 -1.441634e-01 8.185940e-01 2.786222e-01 4.811345e-01 1.306158
1595876266.864000 -960 115 165 -14 33 6 -7.296707e-01 -2.463974e-01 -6.060753e-01 1.988513e-01 0 0 0 0 0 0 0 0 0 0 0 1.273000
1595876266.912000 -960 115 165 -14 33 6 -7.296707e-01 -2.463974e-01 -6.060753e-01 1.988513e-01 76 877 -236 -334 -360 -121 590 -1.412347e-01 8.380088e-01 2.327260e-01 4.728982e-01 1.236583
1595876266.964000 -960 115 165 -14 33 6 -7.296707e-01 -2.463974e-01 -6.060753e-01 1.988513e-01 72 937 -206 -312 590 -127 -205 -1.611931e-01 8.351399e-01 2.381580e-01 4.688698e-01 1.174632
1595876267.012000 -959 121 161 -28 -22 -2 -7.306515e-01 -2.454223e-01 -6.054685e-01 1.983031e-01 74 937 -206 -312 590 -127 -205 -1.611931e-01 8.351399e-01 2.381580e-01 4.688698e-01 1.132260
1595876267.064000 -959 121 161 -28 -22 -2 -7.306515e-01 -2.454223e-01 -6.054685e-01 1.983031e-01 69 891 -173 -394 715 196 -346 -1.971448e-01 8.195240e-01 2.750261e-01 4.624662e-01 1.085446
1595876267.112000 -949 123 142 -20 -40 26 -7.322905e-01 -2.448089e-01 -6.039352e-01 1.976904e-01 67 891 -173 -394 715 196 -346 -1.971448e-01 8.195240e-01 2.750261e-01 4.624662e-01 1.033970
1595876267.164000 -949 123 142 -20 -40 26 -7.322905e-01 -2.448089e-01 -6.039352e-01 1.976904e-01 71 1099 -225 -563 584 52 -256 -2.217430e-01 8.036582e-01 3.070710e-01 4.589891e-01 0.960655
1595876267.212000 -949 110 139 -34 -14 24 -7.337474e-01 -2.441959e-01 -6.029521e-01 1.960403e-01 71 1099 -225 -563 584 52 -256 -2.217430e-01 8.036582e-01 3.070710e-01 4.589891e-01 0.890429
1595876267.267000 -949 110 139 -34 -14 24 -7.337474e-01 -2.441959e-01 -6.029521e-01 1.960403e-01 69 846 -205 -413 1138 536 10 -2.628816e-01 7.785737e-01 3.370402e-01 4.594781e-01 0.846908
1595876267.312000 -942 108 144 -18 9 4 -7.341854e-01 -2.438943e-01 -6.027778e-01 1.953108e-01 0 0 0 0 0 0 0 0 0 0 0 0.788349
1595876267.367000 -942 108 144 -18 9 4 -7.341854e-01 -2.438943e-01 -6.027778e-01 1.953108e-01 66 925 -224 -567 1240 196 363 -3.337981e-01 7.508473e-01 3.586391e-01 4.429279e-01 0.726302
1595876267.412000 -950 105 143 11 22 -14 -7.337958e-01 -2.435203e-01 -6.032469e-01 1.957928e-01 0 0 0 0 0 0 0 0 0 0 0 0.680580
1595876267.464000 -950 105 143 11 22 -14 -7.337958e-01 -2.435203e-01 -6.032469e-01 1.957928e-01 66 844 -335 -381 1131 757 114 -3.971618e-01 7.168688e-01 3.716487e-01 4.361638e-01 0.633664
1595876267.512000 -945 104 145 29 39 -25 -7.325340e-01 -2.437101e-01 -6.044229e-01 1.966526e-01 62 844 -335 -381 1131 757 114 -3.971618e-01 7.168688e-01 3.716487e-01 4.361638e-01 0.546982
1595876267.564000 -945 104 145 29 39 -25 -7.325340e-01 -2.437101e-01 -6.044229e-01 1.966526e-01 58 813 -298 -395 1300 -69 635 -4.612459e-01 6.875048e-01 3.882474e-01 4.047880e-01 0.515084
1595876267.612000 -958 119 145 26 40 -45 -7.300141e-01 -2.437653e-01 -6.067277e-01 1.988451e-01 58 813 -298 -395 1300 -69 635 -4.612459e-01 6.875048e-01 3.882474e-01 4.047880e-01 0.467348
1595876267.664000 -958 119 145 26 40 -45 -7.300141e-01 -2.437653e-01 -6.067277e-01 1.988451e-01 60 813 -296 -290 852 334 706 -5.241004e-01 6.642348e-01 3.828063e-01 3.709046e-01 0.420859
1595876267.712000 -957 124 144 21 17 4 -7.288066e-01 -2.446241e-01 -6.074711e-01 1.999473e-01 60 813 -296 -290 852 334 706 -5.241004e-01 6.642348e-01 3.828063e-01 3.709046e-01 0.379521
1595876267.764000 -957 124 144 21 17 4 -7.288066e-01 -2.446241e-01 -6.074711e-01 1.999473e-01 57 870 -312 -298 288 32 440 -5.560232e-01 6.582558e-01 3.707839e-01 3.464922e-01 0.353227
1595876267.812000 -955 119 150 -3 18 26 -7.284607e-01 -2.458517e-01 -6.075490e-01 1.994646e-01 55 870 -312 -298 288 32 440 -5.560232e-01 6.582558e-01 3.707839e-01 3.464922e-01 0.325241
1595876267.864000 -955 119 150 -3 18 26 -7.284607e-01 -2.458517e-01 -6.075490e-01 1.994646e-01 55 800 -295 -157 77 -164 133 -5.677354e-01 6.581873e-01 3.612584e-01 3.375773e-01 0.301324
1595876267.912000 -960 113 145 -37 11 22 -7.286508e-01 -2.457930e-01 -6.079821e-01 1.975133e-01 54 800 -295 -157 77 -164 133 -5.677354e-01 6.581873e-01 3.612584e-01 3.375773e-01 0.284760
1595876267.964000 -960 113 145 -37 11 22 -7.286508e-01 -2.457930e-01 -6.079821e-01 1.975133e-01 53 978 -318 -368 -307 -476 -614 -5.514024e-01 6.631599e-01 3.801344e-01 3.341740e-01 0.273844
1595876268.012000 -945 98 150 -96 41 -7 -7.287721e-01 -2.442668e-01 -6.091411e-01 1.953768e-01 54 978 -318 -368 -307 -476 -614 -5.514024e-01 6.631599e-01 3.801344e-01 3.341740e-01 0.264092
1595876268.064000 -945 98 150 -96 41 -7 -7.287721e-01 -2.442668e-01 -6.091411e-01 1.953768e-01 54 884 -212 -257 -69 -81 -501 -5.324098e-01 6.540528e-01 4.108277e-01 3.463746e-01 0.265119
1595876268.112000 -946 103 142 -33 21 -24 -7.281497e-01 -2.428590e-01 -6.107790e-01 1.943360e-01 56 884 -212 -257 -69 -81 -501 -5.324098e-01 6.540528e-01 4.108277e-01 3.463746e-01 0.272647
1595876268.164000 -946 103 142 -33 21 -24 -7.281497e-01 -2.428590e-01 -6.107790e-01 1.943360e-01 57 914 -153 -393 -861 52 88 -5.162865e-01 6.600826e-01 4.196086e-01 3.488092e-01 0.289968
1595876268.212000 -946 122 106 -15 75 -11 -7.265567e-01 -2.421245e-01 -6.132153e-01 1.935409e-01 59 914 -153 -393 -861 52 88 -5.162865e-01 6.600826e-01 4.196086e-01 3.488092e-01 0.300535
1595876268.264000 -946 122 106 -15 75 -11 -7.265567e-01 -2.421245e-01 -6.132153e-01 1.935409e-01 60 922 -192 -328 -1527 -59 2 -4.770466e-01 6.908508e-01 3.926357e-01 3.754850e-01 0.333422
1595876268.312000 -957 145 111 67 -65 -17 -7.244800e-01 -2.448095e-01 -6.143737e-01 1.942729e-01 62 922 -192 -328 -1527 -59 2 -4.770466e-01 6.908508e-01 3.926357e-01 3.754850e-01 0.354987
1595876268.364000 -957 145 111 67 -65 -17 -7.244800e-01 -2.448095e-01 -6.143737e-01 1.942729e-01 61 939 -222 -385 -1491 -140 -512 -4.093079e-01 7.220567e-01 3.817196e-01 4.066833e-01 0.382404
1595876268.412000 -948 121 117 -17 -10 41 -7.250292e-01 -2.455419e-01 -6.133360e-01 1.945781e-01 65 939 -222 -385 -1491 -140 -512 -4.093079e-01 7.220567e-01 3.817196e-01 4.066833e-01 0.414214
1595876268.464000 -960 127 94 48 -56 13 -7.245611e-01 -2.471357e-01 -6.131700e-01 1.948276e-01 0 0 0 0 0 0 0 0 0 0 0 0.443620
1595876268.512000 -960 127 94 48 -56 13 -7.245611e-01 -2.471357e-01 -6.131700e-01 1.948276e-01 66 921 -241 -369 -1160 -163 -530 -3.432684e-01 7.392112e-01 3.794019e-01 4.379358e-01 0.459156
1595876268.564000 -960 127 94 48 -56 13 -7.245611e-01 -2.471357e-01 -6.131700e-01 1.948276e-01 65 893 -238 -351 -504 -143 -155 -3.123155e-01 7.503629e-01 3.709701e-01 4.492168e-01 0.488533
1595876268.612000 -964 161 112 -91 61 33 -7.249296e-01 -2.496390e-01 -6.119512e-01 1.940958e-01 67 893 -238 -351 -504 -143 -155 -3.123155e-01 7.503629e-01 3.709701e-01 4.492168e-01 0.500064
1595876268.664000 -964 161 112 -91 61 33 -7.249296e-01 -2.496390e-01 -6.119512e-01 1.940958e-01 66 930 -240 -338 80 -190 -98 -3.139573e-01 7.545595e-01 3.622349e-01 4.481704e-01 0.519021
1595876268.712000 -961 131 130 11 56 70 -7.238555e-01 -2.485888e-01 -6.151551e-01 1.892644e-01 65 930 -240 -338 80 -190 -98 -3.139573e-01 7.545595e-01 3.622349e-01 4.481704e-01 0.534661
1595876268.764000 -961 131 130 11 56 70 -7.238555e-01 -2.485888e-01 -6.151551e-01 1.892644e-01 66 944 -206 -356 978 -151 -195 -3.361191e-01 7.434048e-01 3.809187e-01 4.350566e-01 0.545392
1595876268.812000 -963 119 125 -10 4 23 -7.239352e-01 -2.487783e-01 -6.162085e-01 1.852410e-01 65 944 -206 -356 978 -151 -195 -3.361191e-01 7.434048e-01 3.809187e-01 4.350566e-01 0.554744
1595876268.864000 -963 119 125 -10 4 23 -7.239352e-01 -2.487783e-01 -6.162085e-01 1.852410e-01 66 895 -146 -431 1122 422 190 -3.839069e-01 7.175214e-01 4.047197e-01 4.171097e-01 0.568685
1595876268.912000 -955 116 126 65 -67 -2 -7.250595e-01 -2.491534e-01 -6.143993e-01 1.863462e-01 64 895 -146 -431 1122 422 190 -3.839069e-01 7.175214e-01 4.047197e-01 4.171097e-01 0.583594
1595876268.964000 -955 116 126 65 -67 -2 -7.250595e-01 -2.491534e-01 -6.143993e-01 1.863462e-01 65 923 -160 -459 599 552 450 -4.264398e-01 7.007845e-01 4.021485e-01 4.066039e-01 0.611732
1595876269.012000 -957 114 131 114 -112 -7 -7.263240e-01 -2.520772e-01 -6.102953e-01 1.909195e-01 70 923 -160 -459 599 552 450 -4.264398e-01 7.007845e-01 4.021485e-01 4.066039e-01 0.622671
1595876269.064000 -957 114 131 114 -112 -7 -7.263240e-01 -2.520772e-01 -6.102953e-01 1.909195e-01 69 830 -151 -439 198 424 411 -4.460403e-01 6.979908e-01 3.914144e-01 4.008137e-01 0.652799
1595876269.112000 -956 112 140 191 -108 7 -7.284626e-01 -2.555570e-01 -6.040106e-01 1.980002e-01 68 830 -151 -439 198 424 411 -4.460403e-01 6.979908e-01 3.914144e-01 4.008137e-01 0.686034
1595876269.164000 -956 112 140 191 -108 7 -7.284626e-01 -2.555570e-01 -6.040106e-01 1.980002e-01 67 767 -157 -395 -360 -46 376 -4.548383e-01 7.025214e-01 3.683507e-01 4.048501e-01 0.739887
1595876269.212000 -954 141 127 86 -85 -112 -7.287538e-01 -2.576273e-01 -6.000317e-01 2.061751e-01 74 767 -157 -395 -360 -46 376 -4.548383e-01 7.025214e-01 3.683507e-01 4.048501e-01 0.774910
1595876269.264000 -954 141 127 86 -85 -112 -7.287538e-01 -2.576273e-01 -6.000317e-01 2.061751e-01 80 818 -173 -479 -1050 31 53 -4.271143e-01 7.244098e-01 3.488080e-01 4.136869e-01 0.820910
1595876269.312000 -943 145 147 -31 -7 -90 -7.287069e-01 -2.561674e-01 -5.992499e-01 2.103905e-01 74 818 -173 -479 -1050 31 53 -4.271143e-01 7.244098e-01 3.488080e-01 4.136869e-01 0.862972
1595876269.364000 -943 145 147 -31 -7 -90 -7.287069e-01 -2.561674e-01 -5.992499e-01 2.103905e-01 77 843 -242 -423 -1485 -235 -340 -3.654178e-01 7.541511e-01 3.272098e-01 4.366459e-01 0.919503
1595876269.412000 -959 130 162 -81 11 -24 -7.290224e-01 -2.533023e-01 -6.002960e-01 2.097832e-01 80 843 -242 -423 -1485 -235 -340 -3.654178e-01 7.541511e-01 3.272098e-01 4.366459e-01 0.956225
1595876269.464000 -959 130 162 -81 11 -24 -7.290224e-01 -2.533023e-01 -6.002960e-01 2.097832e-01 76 912 -248 -478 -602 -630 -548 -3.027990e-01 7.766817e-01 3.306314e-01 4.424491e-01 1.018471
1595876269.512000 -963 122 165 -94 -58 -29 -7.309479e-01 -2.496307e-01 -6.000901e-01 2.080662e-01 72 912 -248 -478 -602 -630 -548 -3.027990e-01 7.766817e-01 3.306314e-01 4.424491e-01 1.044163
1595876269.564000 -963 122 165 -94 -58 -29 -7.309479e-01 -2.496307e-01 -6.000901e-01 2.080662e-01 66 955 -231 -370 -177 -183 -399 -2.692866e-01 7.833847e-01 3.472283e-01 4.395743e-01 1.077209
1595876269.612000 -951 94 170 -221 -53 -63 -7.349220e-01 -2.399284e-01 -6.000347e-01 2.056268e-01 74 955 -231 -370 -177 -183 -399 -2.692866e-01 7.833847e-01 3.472283e-01 4.395743e-01 1.122514
1595876269.664000 -951 94 170 -221 -53 -63 -7.349220e-01 -2.399284e-01 -6.000347e-01 2.056268e-01 67 980 -233 -329 658 -293 -579 -2.634973e-01 7.782233e-01 3.762328e-01 4.282365e-01 1.154317
1595876269.712000 -947 87 148 -81 -133 -53 -7.391565e-01 -2.312077e-01 -5.986496e-01 2.044735e-01 70 980 -233 -329 658 -293 -579 -2.634973e-01 7.782233e-01 3.762328e-01 4.282365e-01 1.170226
1595876269.764000 -947 87 148 -81 -133 -53 -7.391565e-01 -2.312077e-01 -5.986496e-01 2.044735e-01 74 1124 -205 -477 243 -51 -402 -2.693497e-01 7.642257e-01 4.158960e-01 4.128442e-01 1.207591
1595876269.812000 -931 92 148 -65 -53 0 -7.413944e-01 -2.285157e-01 -5.972904e-01 2.033693e-01 70 1124 -205 -477 243 -51 -402 -2.693497e-01 7.642257e-01 4.158960e-01 4.128442e-01 1.223332
1595876269.864000 -931 92 148 -65 -53 0 -7.413944e-01 -2.285157e-01 -5.972904e-01 2.033693e-01 69 819 -212 -263 -22 517 494 -2.825920e-01 7.565287e-01 4.026478e-01 4.309070e-01 1.238878
1595876269.912000 -953 90 163 -65 26 -29 -7.416419e-01 -2.259533e-01 -5.983917e-01 2.020884e-01 70 819 -212 -263 -22 517 494 -2.825920e-01 7.565287e-01 4.026478e-01 4.309070e-01 1.254462
1595876269.964000 -953 90 163 -65 26 -29 -7.416419e-01 -2.259533e-01 -5.983917e-01 2.020884e-01 71 834 -245 -330 352 316 506 -3.110362e-01 7.597071e-01 3.718274e-01 4.334121e-01 1.271421
1595876270.012000 -955 82 170 -20 55 29 -7.406579e-01 -2.241810e-01 -6.007660e-01 2.006215e-01 73 834 -245 -330 352 316 506 -3.110362e-01 7.597071e-01 3.718274e-01 4.334121e-01 1.279129
1595876270.064000 -955 82 170 -20 55 29 -7.406579e-01 -2.241810e-01 -6.007660e-01 2.006215e-01 68 840 -221 -331 999 164 144 -3.528442e-01 7.475584e-01 3.683471e-01 4.254149e-01 1.289225
1595876270.112000 -959 63 176 72 -35 98 -7.408304e-01 -2.270464e-01 -6.001471e-01 1.986046e-01 65 840 -221 -331 999 164 144 -3.528442e-01 7.475584e-01 3.683471e-01 4.254149e-01 1.307347
1595876270.164000 -959 63 176 72 -35 98 -7.408304e-01 -2.270464e-01 -6.001471e-01 1.986046e-01 64 926 -188 -499 1278 37 143 -4.019202e-01 7.254095e-01 3.877599e-01 4.023474e-01 1.327755
1595876270.212000 -951 85 180 53 -6 -2 -7.409838e-01 -2.316337e-01 -5.977920e-01 1.998337e-01 67 926 -188 -499 1278 37 143 -4.019202e-01 7.254095e-01 3.877599e-01 4.023474e-01 1.347927
1595876270.264000 -951 85 180 53 -6 -2 -7.409838e-01 -2.316337e-01 -5.977920e-01 1.998337e-01 64 1000 -161 -492 1113 75 435 -4.565553e-01 7.018622e-01 3.966172e-01 3.763529e-01 1.378499
1595876270.312000 -956 95 192 9 22 -117 -7.392643e-01 -2.293721e-01 -5.994315e-01 2.038592e-01 65 1000 -161 -492 1113 75 435 -4.565553e-01 7.018622e-01 3.966172e-01 3.763529e-01 1.421243
1595876270.364000 -956 95 192 9 22 -117 -7.392643e-01 -2.293721e-01 -5.994315e-01 2.038592e-01 64 801 -130 -359 911 -91 195 -5.019441e-01 6.820556e-01 4.018482e-01 3.483824e-01 1.457500
1595876270.412000 -939 102 193 -16 -41 -88 -7.389989e-01 -2.258866e-01 -5.996585e-01 2.080037e-01 0 0 0 0 0 0 0 0 0 0 0 1.509998
1595876270.464000 -939 102 193 -16 -41 -88 -7.389989e-01 -2.258866e-01 -5.996585e-01 2.080037e-01 65 914 -137 -473 -467 360 -360 -5.058069e-01 6.762809e-01 4.147409e-01 3.388119e-01 1.580550
1595876270.512000 -947 73 207 -200 -105 -87 -7.420919e-01 -2.194903e-01 -5.981659e-01 2.081373e-01 65 914 -137 -473 -467 360 -360 -5.058069e-01 6.762809e-01 4.147409e-01 3.388119e-01 1.610662
1595876270.564000 -947 73 207 -200 -105 -87 -7.420919e-01 -2.194903e-01 -5.981659e-01 2.081373e-01 67 695 -182 -314 -1724 -372 -647 -4.523917e-01 6.936022e-01 3.978874e-01 3.948967e-01 1.706140
1595876270.612000 -1026 66 208 -206 -90 -92 -7.453143e-01 -2.114908e-01 -5.974234e-01 2.070351e-01 68 695 -182 -314 -1724 -372 -647 -4.523917e-01 6.936022e-01 3.978874e-01 3.948967e-01 1.778086
1595876270.664000 -1026 66 208 -206 -90 -92 -7.453143e-01 -2.114908e-01 -5.974234e-01 2.070351e-01 70 958 -265 -508 -1253 -480 -1083 -3.602945e-01 7.245563e-01 4.059493e-01 4.247483e-01 1.825891
1595876270.712000 -888 44 244 37 -258 161 -7.506692e-01 -2.073968e-01 -5.928327e-01 2.050165e-01 70 958 -265 -508 -1253 -480 -1083 -3.602945e-01 7.245563e-01 4.059493e-01 4.247483e-01 1.881846
1595876270.764000 -888 44 244 37 -258 161 -7.506692e-01 -2.073968e-01 -5.928327e-01 2.050165e-01 74 866 -210 -503 -1195 235 -554 -2.920548e-01 7.274820e-01 4.154686e-01 4.613673e-01 1.939627
1595876270.812000 -990 69 134 263 -529 80 -7.658592e-01 -2.126437e-01 -5.699999e-01 2.081882e-01 78 866 -210 -503 -1195 235 -554 -2.920548e-01 7.274820e-01 4.154686e-01 4.613673e-01 1.970360
1595876270.864000 -990 69 134 263 -529 80 -7.658592e-01 -2.126437e-01 -5.699999e-01 2.081882e-01 70 820 -221 -480 -1383 95 704 -2.511005e-01 7.451229e-01 3.709745e-01 4.940834e-01 2.031626
1595876270.912000 -890 63 221 -378 156 -95 -7.700271e-01 -2.116720e-01 -5.643366e-01 2.092306e-01 70 820 -221 -480 -1383 95 704 -2.511005e-01 7.451229e-01 3.709745e-01 4.940834e-01 2.070909
1595876270.964000 -890 63 221 -378 156 -95 -7.700271e-01 -2.116720e-01 -5.643366e-01 2.092306e-01 77 929 -263 -355 -1108 -134 824 -2.161874e-01 7.811311e-01 2.957165e-01 5.056173e-01 2.114168
1595876271.012000 -987 78 227 332 25 -152 -7.652615e-01 -2.064216e-01 -5.706197e-01 2.148445e-01 71 929 -263 -355 -1108 -134 824 -2.161874e-01 7.811311e-01 2.957165e-01 5.056173e-01 2.153556
1595876271.064000 -987 78 227 332 25 -152 -7.652615e-01 -2.064216e-01 -5.706197e-01 2.148445e-01 72 1099 -293 -227 1090 -330 -546 -2.129487e-01 7.918592e-01 2.884482e-01 4.943779e-01 2.175294
1595876271.112000 -963 66 257 16 141 -81 -7.599641e-01 -2.092327e-01 -5.737421e-01 2.224776e-01 71 1099 -293 -227 1090 -330 -546 -2.129487e-01 7.918592e-01 2.884482e-01 4.943779e-01 2.192425
1595876271.164000 -963 66 257 16 141 -81 -7.599641e-01 -2.092327e-01 -5.737421e-01 2.224776e-01 67 1129 -71 -267 1579 268 -819 -2.587318e-01 7.575183e-01 3.702446e-01 4.713203e-01 2.213145
1595876271.212000 -981 43 274 64 91 -77 -7.555694e-01 -2.070354e-01 -5.791742e-01 2.254074e-01 66 1129 -71 -267 1579 268 -819 -2.587318e-01 7.575183e-01 3.702446e-01 4.713203e-01 2.236396
1595876271.264000 -981 43 274 64 91 -77 -7.555694e-01 -2.070354e-01 -5.791742e-01 2.254074e-01 66 795 -98 -235 -23 262 437 -2.906414e-01 7.372234e-01 3.814593e-01 4.759391e-01 2.251292
1595876271.312000 -942 51 272 64 81 101 -7.536531e-01 -2.133764e-01 -5.787285e-01 2.270481e-01 67 795 -98 -235 -23 262 437 -2.906414e-01 7.372234e-01 3.814593e-01 4.759391e-01 2.264228
1595876271.364000 -942 51 272 64 81 101 -7.536531e-01 -2.133764e-01 -5.787285e-01 2.270481e-01 69 840 -191 -355 -263 574 819 -3.051154e-01 7.453629e-01 3.324592e-01 4.907237e-01 2.272731
1595876271.412000 -929 82 259 -107 208 -3 -7.502962e-01 -2.188084e-01 -5.824516e-01 2.234470e-01 68 840 -191 -355 -263 574 819 -3.051154e-01 7.453629e-01 3.324592e-01 4.907237e-01 2.281754
1595876271.464000 -929 82 259 -107 208 -3 -7.502962e-01 -2.188084e-01 -5.824516e-01 2.234470e-01 66 863 -234 -308 686 -165 148 -3.256786e-01 7.493781e-01 3.115187e-01 4.851000e-01 2.286290
1595876271.512000 -1021 95 220 49 25 -70 -7.448759e-01 -2.163094e-01 -5.903343e-01 2.233285e-01 65 863 -234 -308 686 -165 148 -3.256786e-01 7.493781e-01 3.115187e-01 4.851000e-01 2.292894
1595876271.564000 -1021 95 220 49 25 -70 -7.448759e-01 -2.163094e-01 -5.903343e-01 2.233285e-01 65 879 -162 -399 1238 -429 -170 -3.576076e-01 7.388359e-01 3.479640e-01 4.529452e-01 2.301987
1595876271.612000 -939 98 231 -4 -11 301 -7.468090e-01 -2.225291e-01 -5.865344e-01 2.207591e-01 64 879 -162 -399 1238 -429 -170 -3.576076e-01 7.388359e-01 3.479640e-01 4.529452e-01 2.307239
1595876271.664000 -939 98 231 -4 -11 301 -7.468090e-01 -2.225291e-01 -5.865344e-01 2.207591e-01 64 912 -132 -410 1036 -197 284 -3.943960e-01 7.224489e-01 3.770626e-01 4.246684e-01 2.321418
1595876271.712000 -925 61 217 102 -172 122 -7.543207e-01 -2.245445e-01 -5.796411e-01 2.111781e-01 67 912 -132 -410 1036 -197 284 -3.943960e-01 7.224489e-01 3.770626e-01 4.246684e-01 2.338984
1595876271.764000 -925 61 217 102 -172 122 -7.543207e-01 -2.245445e-01 -5.796411e-01 2.111781e-01 71 890 -146 -358 658 14 199 -4.273689e-01 7.155775e-01 3.866584e-01 3.947151e-01 2.363273
1595876271.812000 -902 107 205 -51 19 -8 -7.559500e-01 -2.259610e-01 -5.766217e-01 2.121055e-01 73 890 -146 -358 658 14 199 -4.273689e-01 7.155775e-01 3.866584e-01 3.947151e-01 2.384345
1595876271.864000 -902 107 205 -51 19 -8 -7.559500e-01 -2.259610e-01 -5.766217e-01 2.121055e-01 76 767 -133 -383 57 -220 44 -4.418929e-01 7.113011e-01 3.888536e-01 3.841539e-01 2.427060
1595876271.912000 -976 101 162 -82 -26 113 -7.571285e-01 -2.240563e-01 -5.774440e-01 2.076381e-01 0 0 0 0 0 0 0 0 0 0 0 2.459345
1595876271.964000 -976 101 162 -82 -26 113 -7.571285e-01 -2.240563e-01 -5.774440e-01 2.076381e-01 64 1085 -210 -537 -772 -308 -572 -4.108800e-01 7.242889e-01 3.957436e-01 3.872599e-01 2.496298
1595876272.012000 -904 75 190 -201 116 157 -7.572707e-01 -2.235130e-01 -5.817929e-01 1.951924e-01 69 1085 -210 -537 -772 -308 -572 -4.108800e-01 7.242889e-01 3.957436e-01 3.872599e-01 2.544732
1595876272.064000 -904 75 190 -201 116 157 -7.572707e-01 -2.235130e-01 -5.817929e-01 1.951924e-01 65 819 -186 -357 -966 -748 -674 -3.508244e-01 7.364382e-01 4.047786e-01 4.132013e-01 2.559416
1595876272.112000 -955 65 219 -101 200 -92 -7.537148e-01 -2.166114e-01 -5.911800e-01 1.884135e-01 72 819 -186 -357 -966 -748 -674 -3.508244e-01 7.364382e-01 4.047786e-01 4.132013e-01 2.623225
1595876272.164000 -955 65 219 -101 200 -92 -7.537148e-01 -2.166114e-01 -5.911800e-01 1.884135e-01 69 937 -209 -477 -772 -255 -553 -2.900425e-01 7.523892e-01 4.146777e-01 4.216968e-01 2.648318
1595876272.212000 -1043 65 193 -141 59 -167 -7.497077e-01 -2.070958e-01 -5.996807e-01 1.882357e-01 78 937 -209 -477 -772 -255 -553 -2.900425e-01 7.523892e-01 4.146777e-01 4.216968e-01 2.679076
1595876272.264000 -1043 65 193 -141 59 -167 -7.497077e-01 -2.070958e-01 -5.996807e-01 1.882357e-01 69 887 -205 -456 -956 464 -122 -2.457315e-01 7.580688e-01 4.035709e-01 4.495311e-01 2.712661
1595876272.312000 -979 99 200 137 2 15 -7.475431e-01 -2.075763e-01 -6.003904e-01 1.939657e-01 73 887 -205 -456 -956 464 -122 -2.457315e-01 7.580688e-01 4.035709e-01 4.495311e-01 2.730756
1595876272.364000 -979 99 200 137 2 15 -7.475431e-01 -2.075763e-01 -6.003904e-01 1.939657e-01 73 834 -209 -425 -1118 429 767 -2.249080e-01 7.724386e-01 3.480734e-01 4.812483e-01 2.742476
1595876272.412000 -918 95 205 272 -141 107 -7.491556e-01 -2.182646e-01 -5.929035e-01 1.989773e-01 69 834 -209 -425 -1118 429 767 -2.249080e-01 7.724386e-01 3.480734e-01 4.812483e-01 2.759627
1595876272.464000 -918 95 205 272 -141 107 -7.491556e-01 -2.182646e-01 -5.929035e-01 1.989773e-01 68 920 -213 -519 -814 634 1015 -2.172263e-01 7.907794e-01 2.707546e-01 5.041554e-01 2.768027
1595876272.512000 -951 133 160 123 -87 -91 -7.506859e-01 -2.257734e-01 -5.855215e-01 2.065470e-01 71 920 -213 -519 -814 634 1015 -2.172263e-01 7.907794e-01 2.707546e-01 5.041554e-01 2.780241
1595876272.564000 -951 133 160 123 -87 -91 -7.506859e-01 -2.257734e-01 -5.855215e-01 2.065470e-01 75 986 -231 -177 203 686 686 -2.407871e-01 7.778431e-01 2.078887e-01 5.419999e-01 2.786031
1595876272.664000 -961 119 188 27 46 -97 -7.491990e-01 -2.219216e-01 -5.868472e-01 2.122781e-01 69 999 -92 -114 1772 493 -488 -2.879707e-01 7.502009e-01 2.329157e-01 5.477425e-01 2.804248
1595876272.712000 -934 90 237 -105 39 26 -7.481048e-01 -2.219839e-01 -5.884375e-01 2.116690e-01 69 999 -92 -114 1772 493 -488 -2.879707e-01 7.502009e-01 2.329157e-01 5.477425e-01 2.813678
1595876272.764000 -934 90 237 -105 39 26 -7.481048e-01 -2.219839e-01 -5.884375e-01 2.116690e-01 71 934 16 -37 976 -389 -255 -3.338661e-01 7.150350e-01 2.944980e-01 5.390076e-01 2.825920
1595876272.812000 -979 85 216 -13 -48 -51 -7.492553e-01 -2.191737e-01 -5.888575e-01 2.093472e-01 73 934 16 -37 976 -389 -255 -3.338661e-01 7.150350e-01 2.944980e-01 5.390076e-01 2.836186
1595876272.864000 -979 85 216 -13 -48 -51 -7.492553e-01 -2.191737e-01 -5.888575e-01 2.093472e-01 68 901 -12 -270 -132 -470 245 -3.280007e-01 7.345530e-01 3.030985e-01 5.108607e-01 2.852281
1595876272.912000 -953 91 199 -39 -39 -51 -7.501679e-01 -2.150835e-01 -5.885501e-01 2.111774e-01 65 901 -12 -270 -132 -470 245 -3.280007e-01 7.345530e-01 3.030985e-01 5.108607e-01 2.867574
1595876272.964000 -953 91 199 -39 -39 -51 -7.501679e-01 -2.150835e-01 -5.885501e-01 2.111774e-01 64 918 -199 -190 -694 792 -69 -3.136600e-01 7.412118e-01 2.763675e-01 5.252081e-01 2.883844
1595876273.012000 -955 80 188 -28 -42 -14 -7.515440e-01 -2.115529e-01 -5.880269e-01 2.113088e-01 64 918 -199 -190 -694 792 -69 -3.136600e-01 7.412118e-01 2.763675e-01 5.252081e-01 2.890619
1595876273.064000 -955 80 188 -28 -42 -14 -7.515440e-01 -2.115529e-01 -5.880269e-01 2.113088e-01 64 915 -186 -127 1378 -863 -879 -3.152469e-01 7.222908e-01 3.096927e-01 5.319830e-01 2.899122
1595876273.112000 -961 73 196 -80 5 -5 -7.523732e-01 -2.109965e-01 -5.878240e-01 2.094707e-01 65 915 -186 -127 1378 -863 -879 -3.152469e-01 7.222908e-01 3.096927e-01 5.319830e-01 2.908419
1595876273.164000 -961 73 196 -80 5 -5 -7.523732e-01 -2.109965e-01 -5.878240e-01 2.094707e-01 65 913 -55 -375 687 -1085 -3 -3.242666e-01 7.308663e-01 3.837734e-01 4.619563e-01 2.922450
1595876273.212000 -957 75 217 -65 46 -36 -7.514500e-01 -2.084310e-01 -5.901983e-01 2.086751e-01 64 913 -55 -375 687 -1085 -3 -3.242666e-01 7.308663e-01 3.837734e-01 4.619563e-01 2.933043
1595876273.264000 -957 75 217 -65 46 -36 -7.514500e-01 -2.084310e-01 -5.901983e-01 2.086751e-01 63 913 -55 -375 687 -1085 -3 -3.242666e-01 7.308663e-01 3.837734e-01 4.619563e-01 2.944142
1595876273.312000 -965 58 222 63 -71 26 -7.521554e-01 -2.068534e-01 -5.899809e-01 2.083183e-01 62 992 -160 -407 -139 -182 554 -3.303233e-01 7.448143e-01 3.786022e-01 4.390883e-01 2.955191
1595876273.364000 -965 58 222 63 -71 26 -7.521554e-01 -2.068534e-01 -5.899809e-01 2.083183e-01 62 905 -155 -308 288 509 384 -3.502200e-01 7.446296e-01 3.557743e-01 4.430546e-01 2.972032
1595876273.412000 -1029 56 210 277 -130 47 -7.546852e-01 -2.136189e-01 -5.827525e-01 2.126424e-01 62 905 -155 -308 288 509 384 -3.502200e-01 7.446296e-01 3.557743e-01 4.430546e-01 2.984467
1595876273.464000 -1029 56 210 277 -130 47 -7.546852e-01 -2.136189e-01 -5.827525e-01 2.126424e-01 65 871 -144 -389 365 161 369 -3.766410e-01 7.429673e-01 3.447202e-01 4.327923e-01 2.999247
1595876273.512000 -925 100 233 -255 53 -62 -7.538429e-01 -2.207025e-01 -5.793440e-01 2.176507e-01 70 871 -144 -389 365 161 369 -3.766410e-01 7.429673e-01 3.447202e-01 4.327923e-01 3.019842
1595876273.564000 -925 100 233 -255 53 -62 -7.538429e-01 -2.207025e-01 -5.793440e-01 2.176507e-01 67 867 -154 -428 33 -46 147 -3.803674e-01 7.430348e-01 3.442960e-01 4.297444e-01 3.042378
1595876273.612000 -948 112 220 86 -58 67 -7.552422e-01 -2.163677e-01 -5.793404e-01 2.171611e-01 66 867 -154 -428 33 -46 147 -3.803674e-01 7.430348e-01 3.442960e-01 4.297444e-01 3.071669
1595876273.664000 -948 112 220 86 -58 67 -7.552422e-01 -2.163677e-01 -5.793404e-01 2.171611e-01 72 819 -180 -355 -216 -250 -433 -3.655522e-01 7.493546e-01 3.513305e-01 4.259181e-01 3.098318
1595876273.712000 -927 109 210 288 -89 112 -7.584309e-01 -2.219872e-01 -5.729431e-01 2.173485e-01 73 819 -180 -355 -216 -250 -433 -3.655522e-01 7.493546e-01 3.513305e-01 4.259181e-01 3.122322
1595876273.764000 -927 109 210 288 -89 112 -7.584309e-01 -2.219872e-01 -5.729431e-01 2.173485e-01 77 997 -223 -481 -375 -724 -795 -3.239823e-01 7.578914e-01 3.815398e-01 4.184059e-01 3.147518
1595876273.812000 -941 60 222 7 36 6 -7.582487e-01 -2.239406e-01 -5.725165e-01 2.171046e-01 76 997 -223 -481 -375 -724 -795 -3.239823e-01 7.578914e-01 3.815398e-01 4.184059e-01 3.165248
1595876273.864000 -941 60 222 7 36 6 -7.582487e-01 -2.239406e-01 -5.725165e-01 2.171046e-01 75 912 -177 -401 -170 -507 -453 -2.902792e-01 7.568865e-01 4.078312e-01 4.201602e-01 3.193312
1595876273.912000 -970 58 233 19 69 -140 -7.552541e-01 -2.213760e-01 -5.764809e-01 2.196670e-01 74 912 -177 -401 -170 -507 -453 -2.902792e-01 7.568865e-01 4.078312e-01 4.201602e-01 3.209519
1595876273.964000 -970 58 233 19 69 -140 -7.552541e-01 -2.213760e-01 -5.764809e-01 2.196670e-01 70 898 -190 -402 -433 90 25 -2.848474e-01 7.600611e-01 4.005686e-01 4.251045e-01 3.222597
1595876274.012000 -946 90 241 168 -74 -1 -7.528669e-01 -2.239375e-01 -5.755602e-01 2.275385e-01 68 898 -190 -402 -433 90 25 -2.848474e-01 7.600611e-01 4.005686e-01 4.251045e-01 3.230815
1595876274.064000 -946 90 241 168 -74 -1 -7.528669e-01 -2.239375e-01 -5.755602e-01 2.275385e-01 67 899 -222 -407 -345 269 40 -2.868004e-01 7.641500e-01 3.747509e-01 4.397524e-01 3.234909
1595876274.112000 -939 71 226 14 -141 156 -7.569686e-01 -2.326693e-01 -5.665973e-01 2.276643e-01 67 899 -222 -407 -345 269 40 -2.868004e-01 7.641500e-01 3.747509e-01 4.397524e-01 3.236537
1595876274.164000 -939 71 226 14 -141 156 -7.569686e-01 -2.326693e-01 -5.665973e-01 2.276643e-01 67 865 -205 -417 -68 333 207 -2.962531e-01 7.664495e-01 3.514267e-01 4.486519e-01 3.234889
1595876274.212000 -918 55 236 49 -18 -90 -7.585545e-01 -2.333403e-01 -5.638499e-01 2.285185e-01 67 865 -205 -417 -68 333 207 -2.962531e-01 7.664495e-01 3.514267e-01 4.486519e-01 3.231963
1595876274.264000 -918 55 236 49 -18 -90 -7.585545e-01 -2.333403e-01 -5.638499e-01 2.285185e-01 66 900 -200 -471 195 280 340 -3.102468e-01 7.676517e-01 3.320977e-01 4.518506e-01 3.225747
1595876274.312000 -942 69 234 102 16 -96 -7.551926e-01 -2.339492e-01 -5.647618e-01 2.366348e-01 67 900 -200 -471 195 280 340 -3.102468e-01 7.676517e-01 3.320977e-01 4.518506e-01 3.219459
1595876274.364000 -942 69 234 102 16 -96 -7.551926e-01 -2.339492e-01 -5.647618e-01 2.366348e-01 68 791 -179 -339 585 74 394 -3.360517e-01 7.648137e-01 3.178027e-01 4.484759e-01 3.211918
1595876274.412000 -976 62 247 -39 145 -154 -7.507872e-01 -2.337627e-01 -5.686598e-01 2.414531e-01 71 791 -179 -339 585 74 394 -3.360517e-01 7.648137e-01 3.178027e-01 4.484759e-01 3.203375
1595876274.464000 -976 62 247 -39 145 -154 -7.507872e-01 -2.337627e-01 -5.686598e-01 2.414531e-01 74 919 -178 -422 836 -326 13 -3.650485e-01 7.617739e-01 3.310521e-01 4.205290e-01 3.192731
1595876274.512000 -977 95 274 53 115 -200 -7.445482e-01 -2.299744e-01 -5.752411e-01 2.487117e-01 72 919 -178 -422 836 -326 13 -3.650485e-01 7.617739e-01 3.310521e-01 4.205290e-01 3.187968
1595876274.564000 -977 95 274 53 115 -200 -7.445482e-01 -2.299744e-01 -5.752411e-01 2.487117e-01 70 901 -142 -396 846 -102 101 -3.864064e-01 7.472395e-01 3.564997e-01 4.064865e-01 3.178797
1595876274.612000 -950 85 280 -41 -72 136 -7.469341e-01 -2.315020e-01 -5.715224e-01 2.487136e-01 69 901 -142 -396 846 -102 101 -3.864064e-01 7.472395e-01 3.564997e-01 4.064865e-01 3.171992
1595876274.664000 -950 85 280 -41 -72 136 -7.469341e-01 -2.315020e-01 -5.715224e-01 2.487136e-01 69 855 -152 -388 455 8 333 -4.001505e-01 7.388380e-01 3.710975e-01 3.953287e-01 3.168003
1595876274.712000 -976 71 237 -32 -195 249 -7.553834e-01 -2.345009e-01 -5.622040e-01 2.415200e-01 70 855 -152 -388 455 8 333 -4.001505e-01 7.388380e-01 3.710975e-01 3.953287e-01 3.165836
1595876274.764000 -976 71 237 -32 -195 249 -7.553834e-01 -2.345009e-01 -5.622040e-01 2.415200e-01 71 842 -171 -394 292 -276 -138 -4.111400e-01 7.338996e-01 3.814764e-01 3.831854e-01 3.165273
1595876274.812000 -941 50 223 11 -190 257 -7.641707e-01 -2.387728e-01 -5.520706e-01 2.329134e-01 72 842 -171 -394 292 -276 -138 -4.111400e-01 7.338996e-01 3.814764e-01 3.831854e-01 3.167297
1595876274.864000 -941 50 223 11 -190 257 -7.641707e-01 -2.387728e-01 -5.520706e-01 2.329134e-01 74 916 -183 -482 8 -361 -661 -4.000131e-01 7.280678e-01 4.122808e-01 3.740739e-01 3.170857
1595876274.912000 -936 42 222 87 -58 40 -7.644541e-01 -2.394374e-01 -5.514445e-01 2.327847e-01 76 916 -183 -482 8 -361 -661 -4.000131e-01 7.280678e-01 4.122808e-01 3.740739e-01 3.176707
1595876274.964000 -936 42 222 87 -58 40 -7.644541e-01 -2.394374e-01 -5.514445e-01 2.327847e-01 75 924 -217 -541 -574 160 -551 -3.699364e-01 7.236983e-01 4.341457e-01 3.884912e-01 3.183053
1595876275.012000 -908 70 225 62 78 -161 -7.590915e-01 -2.401114e-01 -5.551128e-01 2.407828e-01 75 924 -217 -541 -574 160 -551 -3.699364e-01 7.236983e-01 4.341457e-01 3.884912e-01 3.190672
1595876275.064000 -908 70 225 62 78 -161 -7.590915e-01 -2.401114e-01 -5.551128e-01 2.407828e-01 75 828 -213 -456 -576 154 -29 -3.483189e-01 7.226991e-01 4.258926e-01 4.183245e-01 3.197661
1595876275.112000 -925 76 256 125 158 -252 -7.507357e-01 -2.387095e-01 -5.626245e-01 2.507335e-01 79 828 -213 -456 -576 154 -29 -3.483189e-01 7.226991e-01 4.258926e-01 4.183245e-01 3.204196
1595876275.164000 -925 76 256 125 158 -252 -7.507357e-01 -2.387095e-01 -5.626245e-01 2.507335e-01 77 814 -254 -513 -997 348 43 -3.255076e-01 7.386027e-01 4.000942e-01 4.340916e-01 3.213372
1595876275.212000 -969 79 268 12 147 -228 -7.429046e-01 -2.366284e-01 -5.695073e-01 2.603096e-01 72 814 -254 -513 -997 348 43 -3.255076e-01 7.386027e-01 4.000942e-01 4.340916e-01 3.216394
1595876275.264000 -969 79 268 12 147 -228 -7.429046e-01 -2.366284e-01 -5.695073e-01 2.603096e-01 70 798 -285 -487 -819 380 -115 -2.941263e-01 7.489570e-01 3.695042e-01 4.647793e-01 3.217613
1595876275.312000 -948 80 279 -30 72 -89 -7.383275e-01 -2.332717e-01 -5.748786e-01 2.645211e-01 69 798 -285 -487 -819 380 -115 -2.941263e-01 7.489570e-01 3.695042e-01 4.647793e-01 3.216136
1595876275.364000 -948 80 279 -30 72 -89 -7.383275e-01 -2.332717e-01 -5.748786e-01 2.645211e-01 71 883 -212 -473 -192 -112 487 -2.881393e-01 7.580975e-01 3.496611e-01 4.690427e-01 3.213502
1595876275.412000 -939 53 255 -17 -43 90 -7.408314e-01 -2.311360e-01 -5.737202e-01 2.618972e-01 70 883 -212 -473 -192 -112 487 -2.881393e-01 7.580975e-01 3.496611e-01 4.690427e-01 3.209461
1595876275.464000 -939 53 255 -17 -43 90 -7.408314e-01 -2.311360e-01 -5.737202e-01 2.618972e-01 65 1001 -199 -422 248 321 955 -3.027311e-01 7.744057e-01 3.156094e-01 4.572094e-01 3.201957
1595876275.512000 -870 59 234 -20 -59 145 -7.458298e-01 -2.346129e-01 -5.683443e-01 2.562798e-01 65 1001 -199 -422 248 321 955 -3.027311e-01 7.744057e-01 3.156094e-01 4.572094e-01 3.195160
1595876275.564000 -870 59 234 -20 -59 145 -7.458298e-01 -2.346129e-01 -5.683443e-01 2.562798e-01 65 1007 -136 -233 1303 -110 161 -3.517976e-01 7.659714e-01 3.032148e-01 4.445076e-01 3.184179
1595876275.612000 -906 101 231 -267 247 -226 -7.437278e-01 -2.312056e-01 -5.740467e-01 2.527515e-01 63 1007 -136 -233 1303 -110 161 -3.517976e-01 7.659714e-01 3.032148e-01 4.445076e-01 3.181083
1595876275.664000 -906 101 231 -267 247 -226 -7.437278e-01 -2.312056e-01 -5.740467e-01 2.527515e-01 62 909 47 -237 1111 288 -165 -4.014267e-01 7.331514e-01 3.394762e-01 4.313948e-01 3.179017
1595876275.712000 -945 99 250 -278 205 -45 -7.347305e-01 -2.168547e-01 -5.926427e-01 2.488367e-01 62 909 47 -237 1111 288 -165 -4.014267e-01 7.331514e-01 3.394762e-01 4.313948e-01 3.181252
1595876275.764000 -945 99 250 -278 205 -45 -7.347305e-01 -2.168547e-01 -5.926427e-01 2.488367e-01 63 832 -33 -250 -852 129 251 -4.093739e-01 7.281082e-01 3.273405e-01 4.417235e-01 3.183598
1595876275.812000 -1023 63 194 56 -269 588 -7.436196e-01 -2.211388e-01 -5.856546e-01 2.348112e-01 65 832 -33 -250 -852 129 251 -4.093739e-01 7.281082e-01 3.273405e-01 4.417235e-01 3.187427
1595876275.864000 -1023 63 194 56 -269 588 -7.436196e-01 -2.211388e-01 -5.856546e-01 2.348112e-01 66 898 -118 -228 -861 -264 -268 -3.694518e-01 7.523926e-01 3.090260e-01 4.493481e-01 3.194839
1595876275.912000 -950 23 207 -123 -188 417 -7.568694e-01 -2.365026e-01 -5.698645e-01 2.155683e-01 67 898 -118 -228 -861 -264 -268 -3.694518e-01 7.523926e-01 3.090260e-01 4.493481e-01 3.199625
1595876275.964000 -950 23 207 -123 -188 417 -7.568694e-01 -2.365026e-01 -5.698645e-01 2.155683e-01 68 905 -139 -347 -939 -509 -532 -3.145823e-01 7.734551e-01 3.180614e-01 4.490458e-01 3.203828
1595876276.012000 -923 64 196 -10 28 -62 -7.597159e-01 -2.415197e-01 -5.654381e-01 2.116120e-01 0 0 0 0 0 0 0 0 0 0 0 3.206274
1595876276.064000 -923 64 196 -10 28 -62 -7.597159e-01 -2.415197e-01 -5.654381e-01 2.116120e-01 70 905 -139 -347 -939 -509 -532 -3.145823e-01 7.734551e-01 3.180614e-01 4.490458e-01 3.205169
1595876276.112000 -956 114 189 -1 205 -329 -7.520568e-01 -2.373599e-01 -5.732892e-01 2.222846e-01 71 927 -166 -378 -1432 -310 -132 -2.517051e-01 7.931395e-01 3.093214e-01 4.603200e-01 3.201271
1595876276.164000 -956 114 189 -1 205 -329 -7.520568e-01 -2.373599e-01 -5.732892e-01 2.222846e-01 71 873 -207 -317 -1280 -467 290 -1.912844e-01 8.195812e-01 2.737430e-01 4.655768e-01 3.193316
1595876276.212000 -967 111 215 20 123 -244 -7.431521e-01 -2.299157e-01 -5.842801e-01 2.312585e-01 71 873 -207 -317 -1280 -467 290 -1.912844e-01 8.195812e-01 2.737430e-01 4.655768e-01 3.182290
1595876276.264000 -967 111 215 20 123 -244 -7.431521e-01 -2.299157e-01 -5.842801e-01 2.312585e-01 80 962 -243 -387 -552 -359 206 -1.556401e-01 8.405173e-01 2.436530e-01 4.581921e-01 3.153087
1595876276.312000 -969 116 214 135 -44 3 -7.405777e-01 -2.308889e-01 -5.850649e-01 2.365039e-01 72 962 -243 -387 -552 -359 206 -1.556401e-01 8.405173e-01 2.436530e-01 4.581921e-01 3.126135
1595876276.364000 -969 116 214 135 -44 3 -7.405777e-01 -2.308889e-01 -5.850649e-01 2.365039e-01 70 934 -196 -426 18 -12 653 -1.583235e-01 8.490511e-01 2.214942e-01 4.527540e-01 3.095000
1595876276.412000 -934 88 228 17 -58 31 -7.417077e-01 -2.349270e-01 -5.813665e-01 2.381009e-01 71 934 -196 -426 18 -12 653 -1.583235e-01 8.490511e-01 2.214942e-01 4.527540e-01 3.055831
1595876276.464000 -934 88 228 17 -58 31 -7.417077e-01 -2.349270e-01 -5.813665e-01 2.381009e-01 69 950 -204 -489 562 842 801 -1.947052e-01 8.469981e-01 1.899444e-01 4.567332e-01 3.032906
1595876276.512000 -964 83 216 18 -148 71 -7.452984e-01 -2.371820e-01 -5.756822e-01 2.384638e-01 77 950 -204 -489 562 842 801 -1.947052e-01 8.469981e-01 1.899444e-01 4.567332e-01 2.995711
1595876276.564000 -964 83 216 18 -148 71 -7.452984e-01 -2.371820e-01 -5.756822e-01 2.384638e-01 72 901 -179 -428 858 328 708 -2.504241e-01 8.342791e-01 1.690653e-01 4.611758e-01 2.961745
1595876276.612000 -975 66 202 -79 -138 69 -7.511737e-01 -2.376143e-01 -5.692855e-01 2.349287e-01 0 0 0 0 0 0 0 0 0 0 0 2.926139
1595876276.664000 -975 66 202 -79 -138 69 -7.511737e-01 -2.376143e-01 -5.692855e-01 2.349287e-01 70 799 -163 -424 550 230 519 -2.992462e-01 8.216302e-01 1.539870e-01 4.600690e-01 2.899809
1595876276.712000 -903 92 223 -74 14 6 -7.527396e-01 -2.404153e-01 -5.654244e-01 2.363870e-01 70 799 -163 -424 550 230 519 -2.992462e-01 8.216302e-01 1.539870e-01 4.600690e-01 2.875615
1595876276.764000 -903 92 223 -74 14 6 -7.527396e-01 -2.404153e-01 -5.654244e-01 2.363870e-01 71 790 -178 -420 13 48 -1 -2.967475e-01 8.191380e-01 1.589937e-01 4.644081e-01 2.863895
1595876276.812000 -928 78 233 -66 74 -100 -7.512054e-01 -2.362623e-01 -5.695074e-01 2.356519e-01 78 790 -178 -420 13 48 -1 -2.967475e-01 8.191380e-01 1.589937e-01 4.644081e-01 2.846680
1595876276.864000 -928 78 233 -66 74 -100 -7.512054e-01 -2.362623e-01 -5.695074e-01 2.356519e-01 75 803 -192 -392 -262 -271 -578 -2.684874e-01 8.228568e-01 1.808429e-01 4.670301e-01 2.831237
1595876276.912000 -978 89 199 13 -8 -29 -7.494370e-01 -2.338214e-01 -5.722552e-01 2.370562e-01 69 803 -192 -392 -262 -271 -578 -2.684874e-01 8.228568e-01 1.808429e-01 4.670301e-01 2.812879
1595876276.964000 -978 89 199 13 -8 -29 -7.494370e-01 -2.338214e-01 -5.722552e-01 2.370562e-01 68 919 -206 -455 -537 -381 -998 -2.254611e-01 8.288474e-01 2.139256e-01 4.652043e-01 2.801804
1595876277.012000 -858 79 231 -11 101 -24 -7.468835e-01 -2.352894e-01 -5.750093e-01 2.369983e-01 69 919 -206 -455 -537 -381 -998 -2.254611e-01 8.288474e-01 2.139256e-01 4.652043e-01 2.789374
1595876277.064000 -858 79 231 -11 101 -24 -7.468835e-01 -2.352894e-01 -5.750093e-01 2.369983e-01 72 1050 -213 -534 -873 -414 -782 -1.660160e-01 8.347799e-01 2.418219e-01 4.659435e-01 2.766437
1595876277.112000 -1214 82 116 76 -76 -87 -7.465772e-01 -2.333969e-01 -5.754968e-01 2.386459e-01 68 1050 -213 -534 -873 -414 -782 -1.660160e-01 8.347799e-01 2.418219e-01 4.659435e-01 2.747856
1595876277.164000 -1214 82 116 76 -76 -87 -7.465772e-01 -2.333969e-01 -5.754968e-01 2.386459e-01 69 986 -238 -377 -644 -120 -449 -1.142559e-01 8.373884e-01 2.520710e-01 4.713666e-01 2.717658
1595876277.212000 -992 83 216 -88 139 -21 -7.428636e-01 -2.431046e-01 -5.730627e-01 2.462784e-01 71 986 -238 -377 -644 -120 -449 -1.142559e-01 8.373884e-01 2.520710e-01 4.713666e-01 2.680795
1595876277.264000 -992 83 216 -88 139 -21 -7.428636e-01 -2.431046e-01 -5.730627e-01 2.462784e-01 70 794 -231 -308 -80 267 -122 -9.314169e-02 8.327819e-01 2.586116e-01 4.805403e-01 2.641201
1595876277.312000 -913 151 226 383 -54 174 -7.388957e-01 -2.556167e-01 -5.694612e-01 2.537856e-01 73 794 -231 -308 -80 267 -122 -9.314169e-02 8.327819e-01 2.586116e-01 4.805403e-01 2.605692
1595876277.364000 -913 151 226 383 -54 174 -7.388957e-01 -2.556167e-01 -5.694612e-01 2.537856e-01 70 896 -177 -456 563 499 998 -1.265298e-01 8.233287e-01 2.498246e-01 4.936676e-01 2.520902
1595876277.412000 -946 49 244 7 46 -37 -7.429877e-01 -2.497581e-01 -5.687308e-01 2.492698e-01 72 896 -177 -456 563 499 998 -1.265298e-01 8.233287e-01 2.498246e-01 4.936676e-01 2.469971
1595876277.464000 -946 49 244 7 46 -37 -7.429877e-01 -2.497581e-01 -5.687308e-01 2.492698e-01 71 934 -151 -378 1071 759 1868 -2.156921e-01 8.160778e-01 2.006168e-01 4.972392e-01 2.429997
1595876277.512000 -942 78 234 -31 -64 -21 -7.426069e-01 -2.498753e-01 -5.682923e-01 2.512791e-01 76 934 -151 -378 1071 759 1868 -2.156921e-01 8.160778e-01 2.006168e-01 4.972392e-01 2.376511
1595876277.564000 -942 78 234 -31 -64 -21 -7.426069e-01 -2.498753e-01 -5.682923e-01 2.512791e-01 71 810 -134 -269 1011 360 1102 -3.077996e-01 8.034040e-01 1.562497e-01 4.851674e-01 2.340501
1595876277.612000 -988 99 220 91 -17 2 -7.424927e-01 -2.529907e-01 -5.653686e-01 2.550659e-01 66 810 -134 -269 1011 360 1102 -3.077996e-01 8.034040e-01 1.562497e-01 4.851674e-01 2.314146
1595876277.664000 -988 99 220 91 -17 2 -7.424927e-01 -2.529907e-01 -5.653686e-01 2.550659e-01 65 776 -91 -202 500 -119 -206 -3.536534e-01 7.872664e-01 1.616893e-01 4.785369e-01 2.285824
1595876277.712000 -936 51 245 -86 13 20 -7.428553e-01 -2.525012e-01 -5.660983e-01 2.528674e-01 67 776 -91 -202 500 -119 -206 -3.536534e-01 7.872664e-01 1.616893e-01 4.785369e-01 2.254282
1595876277.764000 -936 51 245 -86 13 20 -7.428553e-01 -2.525012e-01 -5.660983e-01 2.528674e-01 70 905 -107 -318 -598 -845 -972 -3.261748e-01 7.954783e-01 2.021503e-01 4.689984e-01 2.225369
1595876277.812000 -939 63 236 127 -62 22 -7.436989e-01 -2.526806e-01 -5.641980e-01 2.544506e-01 77 905 -107 -318 -598 -845 -972 -3.261748e-01 7.954783e-01 2.021503e-01 4.689984e-01 2.208653
1595876277.864000 -939 63 236 127 -62 22 -7.436989e-01 -2.526806e-01 -5.641980e-01 2.544506e-01 75 1172 -170 -595 -1823 -1012 -918 -2.396820e-01 8.226215e-01 2.368134e-01 4.580020e-01 2.194233
1595876277.912000 -933 73 218 80 -10 -50 -7.432796e-01 -2.559792e-01 -5.610302e-01 2.593361e-01 76 1172 -170 -595 -1823 -1012 -918 -2.396820e-01 8.226215e-01 2.368134e-01 4.580020e-01 2.166960
1595876277.964000 -933 73 218 80 -10 -50 -7.432796e-01 -2.559792e-01 -5.610302e-01 2.593361e-01 79 1151 -237 -463 -1176 -150 -779 -1.416641e-01 8.388759e-01 2.469508e-01 4.639330e-01 2.118165
1595876278.012000 -934 93 225 -3 119 -126 -7.393140e-01 -2.552474e-01 -5.649987e-01 2.627546e-01 72 1151 -237 -463 -1176 -150 -779 -1.416641e-01 8.388759e-01 2.469508e-01 4.639330e-01 2.089054
1595876278.064000 -934 93 225 -3 119 -126 -7.393140e-01 -2.552474e-01 -5.649987e-01 2.627546e-01 73 699 -192 -266 367 116 -154 -1.227997e-01 8.314614e-01 2.628719e-01 4.738042e-01 2.055139
1595876278.112000 -961 92 232 1 75 -59 -7.355164e-01 -2.536558e-01 -5.700542e-01 2.640315e-01 77 699 -192 -266 367 116 -154 -1.227997e-01 8.314614e-01 2.628719e-01 4.738042e-01 2.010509
1595876278.164000 -961 92 232 1 75 -59 -7.355164e-01 -2.536558e-01 -5.700542e-01 2.640315e-01 73 943 -216 -560 278 830 0 -1.418486e-01 8.229539e-01 2.766780e-01 4.754736e-01 1.960905
1595876278.212000 -956 89 225 5 7 23 -7.350061e-01 -2.542186e-01 -5.708779e-01 2.631300e-01 73 943 -216 -560 278 830 0 -1.418486e-01 8.229539e-01 2.766780e-01 4.754736e-01 1.910238
1595876278.264000 -956 89 225 5 7 23 -7.350061e-01 -2.542186e-01 -5.708779e-01 2.631300e-01 70 763 -187 -342 617 588 301 -1.810932e-01 7.927327e-01 2.786894e-01 5.109915e-01 1.842719
1595876278.312000 -958 83 219 -24 -14 36 -7.359175e-01 -2.551327e-01 -5.700812e-01 2.614195e-01 68 763 -187 -342 617 588 301 -1.810932e-01 7.927327e-01 2.786894e-01 5.109915e-01 1.785559
1595876278.364000 -958 83 219 -24 -14 36 -7.359175e-01 -2.551327e-01 -5.700812e-01 2.614195e-01 73 821 -186 -459 878 -16 504 -2.288258e-01 7.878590e-01 2.846742e-01 4.958604e-01 1.739749
1595876278.412000 -962 81 216 -79 -19 26 -7.377894e-01 -2.530505e-01 -5.703708e-01 2.575061e-01 63 821 -186 -459 878 -16 504 -2.288258e-01 7.878590e-01 2.846742e-01 4.958604e-01 1.698214
1595876278.464000 -962 81 216 -79 -19 26 -7.377894e-01 -2.530505e-01 -5.703708e-01 2.575061e-01 62 907 -159 -468 667 305 475 -2.819224e-01 7.763089e-01 2.879038e-01 4.847429e-01 1.629148
1595876278.512000 -938 83 214 -89 -26 30 -7.397020e-01 -2.500668e-01 -5.708749e-01 2.537900e-01 68 907 -159 -468 667 305 475 -2.819224e-01 7.763089e-01 2.879038e-01 4.847429e-01 1.575298
1595876278.564000 -938 83 214 -89 -26 30 -7.397020e-01 -2.500668e-01 -5.708749e-01 2.537900e-01 69 925 -151 -391 207 -110 483 -3.178659e-01 7.710445e-01 2.797806e-01 4.755781e-01 1.556090
1595876278.612000 -954 79 209 -67 -19 57 -7.419482e-01 -2.476212e-01 -5.708045e-01 2.497575e-01 70 925 -151 -391 207 -110 483 -3.178659e-01 7.710445e-01 2.797806e-01 4.755781e-01 1.504408
1595876278.664000 -954 79 209 -67 -19 57 -7.419482e-01 -2.476212e-01 -5.708045e-01 2.497575e-01 64 1042 -182 -433 -72 -272 -306 -3.191599e-01 7.765065e-01 2.857119e-01 4.621074e-01 1.456287
1595876278.712000 -936 73 213 -51 -47 88 -7.447754e-01 -2.471394e-01 -5.692325e-01 2.453694e-01 67 1042 -182 -433 -72 -272 -306 -3.191599e-01 7.765065e-01 2.857119e-01 4.621074e-01 1.417649
1595876278.764000 -936 73 213 -51 -47 88 -7.447754e-01 -2.471394e-01 -5.692325e-01 2.453694e-01 65 753 -112 -249 -4 100 -59 -3.142776e-01 7.706485e-01 3.040235e-01 4.635732e-01 1.386066
1595876278.812000 -949 91 206 13 -6 -3 -7.460420e-01 -2.479279e-01 -5.677561e-01 2.441437e-01 67 753 -112 -249 -4 100 -59 -3.142776e-01 7.706485e-01 3.040235e-01 4.635732e-01 1.352166
1595876278.864000 -949 91 206 13 -6 -3 -7.460420e-01 -2.479279e-01 -5.677561e-01 2.441437e-01 74 954 -157 -420 -275 -29 464 -3.140216e-01 7.798355e-01 2.896079e-01 4.575743e-01 1.325896
1595876278.912000 -933 101 210 -70 18 -5 -7.457039e-01 -2.477949e-01 -5.683414e-01 2.439498e-01 72 954 -157 -420 -275 -29 464 -3.140216e-01 7.798355e-01 2.896079e-01 4.575743e-01 1.307064
1595876278.964000 -933 101 210 -70 18 -5 -7.457039e-01 -2.477949e-01 -5.683414e-01 2.439498e-01 75 856 -151 -209 -753 0 263 -3.107775e-01 7.859766e-01 2.696416e-01 4.614668e-01 1.281667
1595876279.012000 -942 87 213 123 -26 68 -7.452430e-01 -2.477430e-01 -5.692778e-01 2.432263e-01 77 856 -151 -209 -753 0 263 -3.107775e-01 7.859766e-01 2.696416e-01 4.614668e-01 1.256657
1595876279.064000 -942 87 213 123 -26 68 -7.452430e-01 -2.477430e-01 -5.692778e-01 2.432263e-01 67 872 -216 -275 -376 -323 -525 -2.781349e-01 7.991878e-01 2.634256e-01 4.631920e-01 1.237947
1595876279.112000 -942 79 205 199 -36 83 -7.454883e-01 -2.551286e-01 -5.649451e-01 2.449357e-01 69 872 -216 -275 -376 -323 -525 -2.781349e-01 7.991878e-01 2.634256e-01 4.631920e-01 1.218772
1595876279.212000 -947 82 217 151 36 -51 -7.429215e-01 -2.601324e-01 -5.641491e-01 2.492681e-01 70 943 -185 -387 -401 -180 -398 -2.194774e-01 7.927066e-01 3.361740e-01 4.587298e-01 1.161126
1595876279.264000 -947 82 217 151 36 -51 -7.429215e-01 -2.601324e-01 -5.641491e-01 2.492681e-01 75 943 -185 -387 -401 -180 -398 -2.194774e-01 7.927066e-01 3.361740e-01 4.587298e-01 1.118666
1595876279.312000 -958 92 218 117 47 -75 -7.388984e-01 -2.635522e-01 -5.652518e-01 2.550683e-01 65 943 -185 -387 -401 -180 -398 -2.194774e-01 7.927066e-01 3.361740e-01 4.587298e-01 1.090564
1595876279.364000 -958 92 218 117 47 -75 -7.388984e-01 -2.635522e-01 -5.652518e-01 2.550683e-01 70 1008 -199 -459 -359 -154 251 -2.120993e-01 7.981038e-01 3.244052e-01 4.613084e-01 1.059760
1595876279.412000 -953 93 222 34 63 -103 -7.346934e-01 -2.647142e-01 -5.681254e-01 2.595872e-01 72 1008 -199 -459 -359 -154 251 -2.120993e-01 7.981038e-01 3.244052e-01 4.613084e-01 1.010559
1595876279.464000 -953 93 222 34 63 -103 -7.346934e-01 -2.647142e-01 -5.681254e-01 2.595872e-01 74 1068 -249 -437 33 30 370 -2.100212e-01 8.073701e-01 3.078602e-01 4.574568e-01 0.958518
1595876279.512000 -940 106 223 5 55 -73 -7.313841e-01 -2.653808e-01 -5.703124e-01 2.634277e-01 71 1068 -249 -437 33 30 370 -2.100212e-01 8.073701e-01 3.078602e-01 4.574568e-01 0.909453
1595876279.564000 -940 106 223 5 55 -73 -7.313841e-01 -2.653808e-01 -5.703124e-01 2.634277e-01 71 775 -181 -342 1034 381 518 -2.547058e-01 7.979927e-01 3.028637e-01 4.545396e-01 0.869354
1595876279.612000 -944 115 221 19 16 -25 -7.304949e-01 -2.652072e-01 -5.708212e-01 2.649631e-01 68 775 -181 -342 1034 381 518 -2.547058e-01 7.979927e-01 3.028637e-01 4.545396e-01 0.821395
1595876279.664000 -944 115 221 19 16 -25 -7.304949e-01 -2.652072e-01 -5.708212e-01 2.649631e-01 68 1008 -183 -574 1315 660 355 -3.264816e-01 7.753404e-01 3.126264e-01 4.410462e-01 0.783565
1595876279.712000 -946 112 210 -9 2 40 -7.313845e-01 -2.661744e-01 -5.698854e-01 2.635499e-01 66 1008 -183 -574 1315 660 355 -3.264816e-01 7.753404e-01 3.126264e-01 4.410462e-01 0.727214
1595876279.764000 -946 112 210 -9 2 40 -7.313845e-01 -2.661744e-01 -5.698854e-01 2.635499e-01 67 715 -124 -394 673 618 424 -3.888481e-01 7.421744e-01 3.098700e-01 4.493939e-01 0.696886
1595876279.812000 -944 108 200 -65 -16 76 -7.332211e-01 -2.668478e-01 -5.689742e-01 2.597066e-01 65 715 -124 -394 673 618 424 -3.888481e-01 7.421744e-01 3.098700e-01 4.493939e-01 0.663449
1595876279.864000 -944 108 200 -65 -16 76 -7.332211e-01 -2.668478e-01 -5.689742e-01 2.597066e-01 66 800 -218 -446 -126 -17 287 -4.114503e-01 7.412942e-01 2.956631e-01 4.401987e-01 0.634252
1595876279.912000 -950 100 191 -47 -23 102 -7.356520e-01 -2.669660e-01 -5.679895e-01 2.548201e-01 64 800 -218 -446 -126 -17 287 -4.114503e-01 7.412942e-01 2.956631e-01 4.401987e-01 0.611381
1595876279.964000 -950 100 191 -47 -23 102 -7.356520e-01 -2.669660e-01 -5.679895e-01 2.548201e-01 63 786 -349 -320 561 -364 -900 -4.041104e-01 7.354675e-01 3.202488e-01 4.395715e-01 0.588010
1595876280.012000 -955 90 191 -39 -7 89 -7.376531e-01 -2.679989e-01 -5.671860e-01 2.496888e-01 62 786 -349 -320 561 -364 -900 -4.041104e-01 7.354675e-01 3.202488e-01 4.395715e-01 0.545391
1595876280.064000 -955 90 191 -39 -7 89 -7.376531e-01 -2.679989e-01 -5.671860e-01 2.496888e-01 61 923 -332 -284 918 -1175 -908 -3.975249e-01 7.164359e-01 4.005156e-01 4.102203e-01 0.530020
1595876280.112000 -964 78 201 -33 4 32 -7.384719e-01 -2.671536e-01 -5.678769e-01 2.465846e-01 61 923 -332 -284 918 -1175 -908 -3.975249e-01 7.164359e-01 4.005156e-01 4.102203e-01 0.477813
1595876280.164000 -964 78 201 -33 4 32 -7.384719e-01 -2.671536e-01 -5.678769e-01 2.465846e-01 62 959 -280 -372 672 -442 -206 -4.053837e-01 6.985881e-01 4.552480e-01 3.746839e-01 0.445254
1595876280.212000 -952 81 205 -13 7 -5 -7.379988e-01 -2.664266e-01 -5.688041e-01 2.466507e-01 60 959 -280 -372 672 -442 -206 -4.053837e-01 6.985881e-01 4.552480e-01 3.746839e-01 0.419570
1595876280.264000 -952 81 205 -13 7 -5 -7.379988e-01 -2.664266e-01 -5.688041e-01 2.466507e-01 60 1023 -220 -440 56 628 428 -4.273057e-01 6.882301e-01 4.565414e-01 3.678576e-01 0.380584
1595876280.312000 -949 94 205 49 -8 -28 -7.371826e-01 -2.662964e-01 -5.689697e-01 2.488403e-01 60 1023 -220 -440 56 628 428 -4.273057e-01 6.882301e-01 4.565414e-01 3.678576e-01 0.352284
1595876280.364000 -949 94 205 49 -8 -28 -7.371826e-01 -2.662964e-01 -5.689697e-01 2.488403e-01 61 806 -224 -259 127 360 539 -4.561183e-01 6.867714e-01 4.260278e-01 3.725607e-01 0.312351
1595876280.412000 -948 103 202 68 0 -46 -7.360468e-01 -2.674037e-01 -5.684389e-01 2.522054e-01 61 806 -224 -259 127 360 539 -4.561183e-01 6.867714e-01 4.260278e-01 3.725607e-01 0.299147
1595876280.464000 -948 103 202 68 0 -46 -7.360468e-01 -2.674037e-01 -5.684389e-01 2.522054e-01 58 920 -204 -419 154 302 96 -4.712672e-01 6.843476e-01 4.211558e-01 3.635978e-01 0.277171
1595876280.512000 -942 114 202 73 9 -35 -7.345007e-01 -2.691053e-01 -5.680570e-01 2.557386e-01 58 920 -204 -419 154 302 96 -4.712672e-01 6.843476e-01 4.211558e-01 3.635978e-01 0.260862
1595876280.564000 -942 114 202 73 9 -35 -7.345007e-01 -2.691053e-01 -5.680570e-01 2.557386e-01 58 922 -166 -362 83 197 497 -4.873731e-01 6.794536e-01 4.126649e-01 3.612726e-01 0.253855
1595876280.612000 -942 125 199 17 35 -45 -7.327005e-01 -2.701318e-01 -5.690712e-01 2.575590e-01 59 922 -166 -362 83 197 497 -4.873731e-01 6.794536e-01 4.126649e-01 3.612726e-01 0.253303
1595876280.664000 -942 125 199 17 35 -45 -7.327005e-01 -2.701318e-01 -5.690712e-01 2.575590e-01 60 864 -141 -314 120 22 224 -5.012859e-01 6.784114e-01 4.081455e-01 3.491240e-01 0.259316
1595876280.712000 -952 123 195 -17 35 9 -7.316825e-01 -2.705052e-01 -5.706122e-01 2.566504e-01 60 864 -141 -314 120 22 224 -5.012859e-01 6.784114e-01 4.081455e-01 3.491240e-01 0.270984
1595876280.764000 -952 123 195 -17 35 9 -7.316825e-01 -2.705052e-01 -5.706122e-01 2.566504e-01 60 913 -151 -324 -472 -89 -297 -4.791181e-01 6.771130e-01 4.246757e-01 3.627870e-01 0.284724
1595876280.812000 -955 104 197 -49 23 48 -7.318827e-01 -2.710609e-01 -5.714801e-01 2.535435e-01 60 913 -151 -324 -472 -89 -297 -4.791181e-01 6.771130e-01 4.246757e-01 3.627870e-01 0.316382
1595876280.864000 -955 104 197 -49 23 48 -7.318827e-01 -2.710609e-01 -5.714801e-01 2.535435e-01 62 901 -170 -381 -810 42 -334 -4.406700e-01 6.791933e-01 4.420738e-01 3.861051e-01 0.329248
1595876280.912000 -958 91 196 -59 9 13 -7.325328e-01 -2.701375e-01 -5.723790e-01 2.506066e-01 62 901 -170 -381 -810 42 -334 -4.406700e-01 6.791933e-01 4.420738e-01 3.861051e-01 0.370020
1595876280.964000 -958 91 196 -59 9 13 -7.325328e-01 -2.701375e-01 -5.723790e-01 2.506066e-01 64 894 -206 -340 -677 59 -138 -4.124736e-01 6.863370e-01 4.370707e-01 4.096050e-01 0.396297
1595876281.012000 -952 91 200 -49 7 -41 -7.325901e-01 -2.674506e-01 -5.737799e-01 2.501170e-01 64 894 -206 -340 -677 59 -138 -4.124736e-01 6.863370e-01 4.370707e-01 4.096050e-01 0.433035
1595876281.064000 -952 91 200 -49 7 -41 -7.325901e-01 -2.674506e-01 -5.737799e-01 2.501170e-01 70 894 -206 -340 -677 59 -138 -4.124736e-01 6.863370e-01 4.370707e-01 4.096050e-01 0.472934
1595876281.112000 -962 92 196 -41 -4 -63 -7.325761e-01 -2.636835e-01 -5.751595e-01 2.509876e-01 65 937 -178 -389 -393 -18 -148 -3.958646e-01 6.894367e-01 4.409075e-01 4.166160e-01 0.517003
1595876281.164000 -962 92 196 -41 -4 -63 -7.325761e-01 -2.636835e-01 -5.751595e-01 2.509876e-01 66 843 -169 -317 -504 106 -68 -3.838466e-01 6.896910e-01 4.382895e-01 4.299888e-01 0.550679
1595876281.212000 -954 93 206 8 -36 -51 -7.329119e-01 -2.603766e-01 -5.754408e-01 2.528082e-01 75 843 -169 -317 -504 106 -68 -3.838466e-01 6.896910e-01 4.382895e-01 4.299888e-01 0.611968
1595876281.264000 -954 93 206 8 -36 -51 -7.329119e-01 -2.603766e-01 -5.754408e-01 2.528082e-01 69 914 -191 -455 -669 134 -82 -3.621154e-01 6.979862e-01 4.347460e-01 4.389574e-01 0.648073
1595876281.312000 -959 86 203 -3 -93 -9 -7.347039e-01 -2.590416e-01 -5.728335e-01 2.548910e-01 68 914 -191 -455 -669 134 -82 -3.621154e-01 6.979862e-01 4.347460e-01 4.389574e-01 0.685875
1595876281.364000 -959 86 203 -3 -93 -9 -7.347039e-01 -2.590416e-01 -5.728335e-01 2.548910e-01 70 846 -205 -390 -759 -162 -134 -3.334327e-01 7.094066e-01 4.246186e-01 4.530607e-01 0.730285
1595876281.412000 -934 87 210 29 -85 -35 -7.367404e-01 -2.573800e-01 -5.698737e-01 2.573190e-01 69 846 -205 -390 -759 -162 -134 -3.334327e-01 7.094066e-01 4.246186e-01 4.530607e-01 0.769990
1595876281.464000 -934 87 210 29 -85 -35 -7.367404e-01 -2.573800e-01 -5.698737e-01 2.573190e-01 66 997 -250 -551 -480 -178 -524 -2.883807e-01 7.238508e-01 4.330288e-01 4.531696e-01 0.820260
1595876281.512000 -947 98 210 14 -64 -21 -7.383583e-01 -2.567194e-01 -5.668458e-01 2.600154e-01 70 997 -250 -551 -480 -178 -524 -2.883807e-01 7.238508e-01 4.330288e-01 4.531696e-01 0.851692
1595876281.564000 -947 98 210 14 -64 -21 -7.383583e-01 -2.567194e-01 -5.668458e-01 2.600154e-01 74 773 -158 -309 -507 -621 149 -2.647654e-01 7.269758e-01 4.346840e-01 4.609287e-01 0.895600
1595876281.612000 -934 73 202 15 -120 83 -7.409126e-01 -2.559228e-01 -5.637259e-01 2.603173e-01 74 773 -158 -309 -507 -621 149 -2.647654e-01 7.269758e-01 4.346840e-01 4.609287e-01 0.923264
1595876281.664000 -934 73 202 15 -120 83 -7.409126e-01 -2.559228e-01 -5.637259e-01 2.603173e-01 74 897 -248 -449 -797 -144 181 -2.314377e-01 7.535152e-01 4.131334e-01 4.560397e-01 0.953813
1595876281.712000 -927 56 228 -59 74 -161 -7.411978e-01 -2.526811e-01 -5.652366e-01 2.593948e-01 74 897 -248 -449 -797 -144 181 -2.314377e-01 7.535152e-01 4.131334e-01 4.560397e-01 0.981572
1595876281.764000 -927 56 228 -59 74 -161 -7.411978e-01 -2.526811e-01 -5.652366e-01 2.593948e-01 75 897 -248 -449 -797 -144 181 -2.314377e-01 7.535152e-01 4.131334e-01 4.560397e-01 1.005096
1595876281.812000 -973 95 223 -92 7 -118 -7.382986e-01 -2.479306e-01 -5.683728e-01 2.653261e-01 79 885 -285 -379 -402 322 121 -2.109398e-01 7.594688e-01 3.945966e-01 4.722342e-01 1.017896
1595876281.864000 -973 95 223 -92 7 -118 -7.382986e-01 -2.479306e-01 -5.683728e-01 2.653261e-01 77 911 -204 -440 490 219 946 -2.355398e-01 7.646651e-01 3.737264e-01 4.691875e-01 1.031722
1595876281.912000 -957 74 239 -90 -87 31 -7.413407e-01 -2.437159e-01 -5.671446e-01 2.633694e-01 75 911 -204 -440 490 219 946 -2.355398e-01 7.646651e-01 3.737264e-01 4.691875e-01 1.050147
1595876281.964000 -932 57 244 -15 -162 72 -7.463740e-01 -2.423625e-01 -5.618098e-01 2.618321e-01 0 0 0 0 0 0 0 0 0 0 0 1.065009
1595876282.012000 -932 57 244 -15 -162 72 -7.463740e-01 -2.423625e-01 -5.618098e-01 2.618321e-01 67 1017 -243 -495 686 583 749 -2.923634e-01 7.611824e-01 3.434507e-01 4.660114e-01 1.085793
1595876282.064000 -932 57 244 -15 -162 72 -7.463740e-01 -2.423625e-01 -5.618098e-01 2.618321e-01 66 828 -255 -309 1218 170 183 -3.524262e-01 7.368356e-01 3.443693e-01 4.629027e-01 1.096260
1595876282.112000 -924 46 237 -28 -113 54 -7.515192e-01 -2.412698e-01 -5.562694e-01 2.599464e-01 65 828 -255 -309 1218 170 183 -3.524262e-01 7.368356e-01 3.443693e-01 4.629027e-01 1.111934
1595876282.164000 -924 46 237 -28 -113 54 -7.515192e-01 -2.412698e-01 -5.562694e-01 2.599464e-01 63 1024 -286 -374 1596 -398 -387 -3.964153e-01 7.176369e-01 3.922040e-01 4.171669e-01 1.138379
1595876282.212000 -951 51 240 -61 5 -2 -7.527710e-01 -2.390825e-01 -5.561704e-01 2.585533e-01 62 1024 -286 -374 1596 -398 -387 -3.964153e-01 7.176369e-01 3.922040e-01 4.171669e-01 1.156120
1595876282.264000 -951 51 240 -61 5 -2 -7.527710e-01 -2.390825e-01 -5.561704e-01 2.585533e-01 63 813 -214 -185 949 -224 -199 -4.271264e-01 6.869545e-01 4.429956e-01 3.865378e-01 1.179196
1595876282.312000 -918 73 247 17 -7 68 -7.530450e-01 -2.404153e-01 -5.555980e-01 2.577491e-01 64 813 -214 -185 949 -224 -199 -4.271264e-01 6.869545e-01 4.429956e-01 3.865378e-01 1.199534
1595876282.364000 -918 73 247 17 -7 68 -7.530450e-01 -2.404153e-01 -5.555980e-01 2.577491e-01 69 797 -141 -186 663 193 259 -4.569644e-01 6.708900e-01 4.534245e-01 3.680984e-01 1.236440
1595876282.412000 -982 59 269 12 53 54 -7.532406e-01 -2.431659e-01 -5.554852e-01 2.548237e-01 67 856 -141 -186 663 193 259 -4.569644e-01 6.708900e-01 4.534245e-01 3.680984e-01 1.265014
1595876282.464000 -982 59 269 12 53 54 -7.532406e-01 -2.431659e-01 -5.554852e-01 2.548237e-01 63 856 -241 -250 163 -200 -67 -4.646000e-01 6.685186e-01 4.589237e-01 3.558353e-01 1.290152
1595876282.512000 -961 36 303 39 -37 92 -7.526745e-01 -2.462732e-01 -5.554728e-01 2.535363e-01 63 901 -241 -250 163 -200 -67 -4.646000e-01 6.685186e-01 4.589237e-01 3.558353e-01 1.319772
1595876282.564000 -961 36 303 39 -37 92 -7.526745e-01 -2.462732e-01 -5.554728e-01 2.535363e-01 63 901 -238 -358 505 -345 -444 -4.604479e-01 6.594829e-01 4.791246e-01 3.514394e-01 1.347285
1595876282.612000 -943 70 248 87 -77 -52 -7.547504e-01 -2.489590e-01 -5.494309e-01 2.578700e-01 65 1015 -238 -358 505 -345 -444 -4.604479e-01 6.594829e-01 4.791246e-01 3.514394e-01 1.403367
1595876282.664000 -943 70 248 87 -77 -52 -7.547504e-01 -2.489590e-01 -5.494309e-01 2.578700e-01 65 1015 -177 -434 326 -133 -126 -4.609421e-01 6.467960e-01 5.029347e-01 3.409458e-01 1.452410
1595876282.712000 -957 97 234 128 -12 -102 -7.522078e-01 -2.492711e-01 -5.490799e-01 2.656287e-01 66 820 -177 -434 326 -133 -126 -4.609421e-01 6.467960e-01 5.029347e-01 3.409458e-01 1.489851
1595876282.764000 -957 97 234 128 -12 -102 -7.522078e-01 -2.492711e-01 -5.490799e-01 2.656287e-01 74 820 -121 -357 -84 -186 134 -4.661207e-01 6.451960e-01 5.057321e-01 3.326992e-01 1.560848
1595876282.812000 -906 63 257 21 25 -40 -7.500892e-01 -2.505180e-01 -5.496748e-01 2.691924e-01 73 979 -121 -357 -84 -186 134 -4.661207e-01 6.451960e-01 5.057321e-01 3.326992e-01 1.626214
1595876282.864000 -906 63 257 21 25 -40 -7.500892e-01 -2.505180e-01 -5.496748e-01 2.691924e-01 72 979 -199 -508 -1475 344 -474 -4.302366e-01 6.645504e-01 4.985959e-01 3.530882e-01 1.678768
1595876282.912000 -927 60 273 107 68 -186 -7.456664e-01 -2.495117e-01 -5.528563e-01 2.758178e-01 67 725 -240 -508 -1475 344 -474 -4.302366e-01 6.645504e-01 4.985959e-01 3.530882e-01 1.745361
1595876282.964000 -927 60 273 107 68 -186 -7.456664e-01 -2.495117e-01 -5.528563e-01 2.758178e-01 66 725 -240 -318 -2105 -382 -886 -3.455887e-01 6.840973e-01 4.785263e-01 4.284763e-01 1.793747
1595876283.012000 -919 68 253 94 72 -91 -7.401880e-01 -2.501270e-01 -5.562244e-01 2.831477e-01 69 944 -290 -318 -2105 -382 -886 -3.455887e-01 6.840973e-01 4.785263e-01 4.284763e-01 1.875748
1595876283.064000 -919 68 253 94 72 -91 -7.401880e-01 -2.501270e-01 -5.562244e-01 2.831477e-01 75 944 -290 -519 -797 -435 -765 -2.561655e-01 7.014797e-01 4.817523e-01 4.584978e-01 1.926539
1595876283.112000 -923 50 263 -61 143 -80 -7.364674e-01 -2.485409e-01 -5.614755e-01 2.838811e-01 83 812 -184 -479 -646 476 328 -2.277840e-01 7.026391e-01 4.742447e-01 4.790665e-01 1.964801
1595876283.164000 -923 50 263 -61 143 -80 -7.364674e-01 -2.485409e-01 -5.614755e-01 2.838811e-01 81 812 -184 -479 -646 476 328 -2.277840e-01 7.026391e-01 4.742447e-01 4.790665e-01 2.006952
1595876283.212000 -923 65 268 -97 98 101 -7.341890e-01 -2.490225e-01 -5.662819e-01 2.797840e-01 77 819 -218 -479 -646 476 328 -2.277840e-01 7.026391e-01 4.742447e-01 4.790665e-01 2.035289
1595876283.264000 -923 65 268 -97 98 101 -7.341890e-01 -2.490225e-01 -5.662819e-01 2.797840e-01 76 819 -218 -375 -1038 -155 1535 -2.221126e-01 7.361636e-01 4.027202e-01 4.965336e-01 2.076745
1595876283.312000 -935 123 236 -97 186 -70 -7.319359e-01 -2.471511e-01 -5.717849e-01 2.761308e-01 73 1042 -278 -375 -1038 -155 1535 -2.221126e-01 7.361636e-01 4.027202e-01 4.965336e-01 2.095975
1595876283.364000 -935 123 236 -97 186 -70 -7.319359e-01 -2.471511e-01 -5.717849e-01 2.761308e-01 81 1042 -278 -375 -1038 -155 1535 -2.221126e-01 7.361636e-01 4.027202e-01 4.965336e-01 2.109996
1595876283.412000 -997 122 201 -99 22 187 -7.329594e-01 -2.483481e-01 -5.743316e-01 2.669025e-01 73 977 -221 -511 -27 22 1142 -2.329651e-01 7.754925e-01 3.298254e-01 4.853389e-01 2.134402
1595876283.464000 -997 122 201 -99 22 187 -7.329594e-01 -2.483481e-01 -5.743316e-01 2.669025e-01 72 977 -221 -246 1642 -157 -211 -2.795467e-01 7.685704e-01 3.299017e-01 4.715062e-01 2.165986
1595876283.512000 -856 90 206 -276 -80 532 -7.425642e-01 -2.553747e-01 -5.688557e-01 2.445103e-01 75 1044 -105 -246 1642 -157 -211 -2.795467e-01 7.685704e-01 3.299017e-01 4.715062e-01 2.180536
1595876283.564000 -856 90 206 -276 -80 532 -7.425642e-01 -2.553747e-01 -5.688557e-01 2.445103e-01 70 1044 -105 -450 1586 -574 -1400 -3.215323e-01 7.341288e-01 4.256580e-01 4.201038e-01 2.210778
1595876283.612000 -1037 70 142 -249 37 86 -7.524297e-01 -2.524985e-01 -5.663364e-01 2.221645e-01 69 830 -117 -450 1586 -574 -1400 -3.215323e-01 7.341288e-01 4.256580e-01 4.201038e-01 2.248809
1595876283.664000 -1037 70 142 -249 37 86 -7.524297e-01 -2.524985e-01 -5.663364e-01 2.221645e-01 67 830 -117 -220 -624 220 -608 -3.009717e-01 7.101613e-01 4.704094e-01 4.287214e-01 2.277727
1595876283.712000 -915 97 212 -290 246 14 -7.483730e-01 -2.468941e-01 -5.770425e-01 2.144835e-01 72 839 -234 -220 -624 220 -608 -3.009717e-01 7.101613e-01 4.704094e-01 4.287214e-01 2.295665
1595876283.764000 -915 97 212 -290 246 14 -7.483730e-01 -2.468941e-01 -5.770425e-01 2.144835e-01 67 839 -234 -315 -624 -305 -105 -2.723464e-01 7.152299e-01 4.563115e-01 4.539311e-01 2.320305
1595876283.812000 -1054 42 178 37 -34 -59 -7.490161e-01 -2.390113e-01 -5.822697e-01 2.069071e-01 67 907 -271 -315 -624 -305 -105 -2.723464e-01 7.152299e-01 4.563115e-01 4.539311e-01 2.332137
1595876283.864000 -1054 42 178 37 -34 -59 -7.490161e-01 -2.390113e-01 -5.822697e-01 2.069071e-01 70 907 -271 -368 84 445 -397 -2.572157e-01 7.109751e-01 4.552243e-01 4.702397e-01 2.341591
1595876283.912000 -945 104 187 153 -27 -4 -7.472200e-01 -2.464691e-01 -5.783295e-01 2.155231e-01 72 804 -221 -382 84 445 -397 -2.572157e-01 7.109751e-01 4.552243e-01 4.702397e-01 2.348613
1595876283.964000 -945 104 187 153 -27 -4 -7.472200e-01 -2.464691e-01 -5.783295e-01 2.155231e-01 70 804 -221 -382 1174 -129 -69 -2.784420e-01 6.932973e-01 4.807732e-01 4.589837e-01 2.351889
1595876284.012000 -931 100 199 182 -25 -91 -7.456604e-01 -2.520723e-01 -5.750494e-01 2.230879e-01 69 843 -163 -450 1174 -129 -69 -2.784420e-01 6.932973e-01 4.807732e-01 4.589837e-01 2.358096
1595876284.064000 -931 100 199 182 -25 -91 -7.456604e-01 -2.520723e-01 -5.750494e-01 2.230879e-01 70 843 -163 -450 1238 32 734 -3.327058e-01 6.823186e-01 4.965258e-01 4.209635e-01 2.361470
1595876284.112000 -930 133 183 201 23 -191 -7.403575e-01 -2.551273e-01 -5.754403e-01 2.359012e-01 68 978 -180 -495 1238 32 734 -3.327058e-01 6.823186e-01 4.965258e-01 4.209635e-01 2.370825
1595876284.164000 -930 133 183 201 23 -191 -7.403575e-01 -2.551273e-01 -5.754403e-01 2.359012e-01 66 978 -180 -495 1259 22 922 -3.949629e-01 6.851273e-01 4.879205e-01 3.695110e-01 2.385093
1595876284.212000 -980 131 175 -16 62 -161 -7.352813e-01 -2.550627e-01 -5.792774e-01 2.423676e-01 0 0 0 0 0 0 0 0 0 0 0 2.412218
1595876284.264000 -980 131 175 -16 62 -161 -7.352813e-01 -2.550627e-01 -5.792774e-01 2.423676e-01 79 769 -146 -399 1151 -269 320 -4.483793e-01 6.742169e-01 4.904339e-01 3.222764e-01 2.434133
1595876284.312000 -939 131 202 46 47 103 -7.327998e-01 -2.587537e-01 -5.807462e-01 2.424557e-01 74 1058 -157 -635 1151 -269 320 -4.483793e-01 6.742169e-01 4.904339e-01 3.222764e-01 2.461515
1595876284.364000 -939 131 202 46 47 103 -7.327998e-01 -2.587537e-01 -5.807462e-01 2.424557e-01 67 1058 -157 -635 -82 -385 -358 -4.613091e-01 6.642534e-01 5.087950e-01 2.951084e-01 2.501346
1595876284.412000 -950 83 213 -33 9 147 -7.349621e-01 -2.616536e-01 -5.798380e-01 2.348533e-01 65 830 -196 -375 -82 -385 -358 -4.613091e-01 6.642534e-01 5.087950e-01 2.951084e-01 2.542677
1595876284.464000 -950 83 213 -33 9 147 -7.349621e-01 -2.616536e-01 -5.798380e-01 2.348533e-01 67 830 -196 -375 -82 -385 -358 -4.613091e-01 6.642534e-01 5.087950e-01 2.951084e-01 2.598703
1595876284.512000 -963 75 184 -143 -15 35 -7.374615e-01 -2.591279e-01 -5.799093e-01 2.295831e-01 70 917 -214 -439 -1046 -629 -869 -4.164471e-01 6.679145e-01 5.228325e-01 3.272738e-01 2.616375
1595876284.564000 -963 75 184 -143 -15 35 -7.374615e-01 -2.591279e-01 -5.799093e-01 2.295831e-01 65 917 -214 -439 -454 -808 -1144 -3.476507e-01 6.695450e-01 5.645662e-01 3.348335e-01 2.676969
1595876284.612000 -882 101 159 45 -31 -55 -7.379678e-01 -2.573824e-01 -5.795223e-01 2.308934e-01 70 940 -178 -485 -454 -808 -1144 -3.476507e-01 6.695450e-01 5.645662e-01 3.348335e-01 2.698144
1595876284.664000 -882 101 159 45 -31 -55 -7.379678e-01 -2.573824e-01 -5.795223e-01 2.308934e-01 63 940 -178 -485 -977 59 -557 -2.962618e-01 6.622860e-01 5.888004e-01 3.562587e-01 2.743670
1595876284.712000 -1035 79 139 76 36 -58 -7.365435e-01 -2.583485e-01 -5.786909e-01 2.363822e-01 69 847 -218 -453 -977 59 -557 -2.962618e-01 6.622860e-01 5.888004e-01 3.562587e-01 2.765540
1595876284.764000 -1035 79 139 76 36 -58 -7.365435e-01 -2.583485e-01 -5.786909e-01 2.363822e-01 69 847 -218 -453 -1400 491 389 -2.649560e-01 6.763976e-01 5.535327e-01 4.072912e-01 2.791386
1595876284.812000 -931 149 168 -150 140 12 -7.318056e-01 -2.692849e-01 -5.778762e-01 2.408428e-01 67 887 -269 -480 -1400 491 389 -2.649560e-01 6.763976e-01 5.535327e-01 4.072912e-01 2.817101
1595876284.864000 -931 149 168 -150 140 12 -7.318056e-01 -2.692849e-01 -5.778762e-01 2.408428e-01 70 887 -269 -480 -1011 409 288 -2.512752e-01 6.972474e-01 4.943108e-01 4.542728e-01 2.827456
1595876284.912000 -953 54 210 -71 9 -163 -7.315967e-01 -2.551131e-01 -5.875961e-01 2.332689e-01 81 904 -205 -502 3 678 231 -2.504876e-01 6.934185e-01 4.702746e-01 4.850450e-01 2.843826
1595876284.964000 -953 54 210 -71 9 -163 -7.315967e-01 -2.551131e-01 -5.875961e-01 2.332689e-01 74 904 -205 -502 3 678 231 -2.504876e-01 6.934185e-01 4.702746e-01 4.850450e-01 2.849174
1595876285.012000 -1050 99 147 59 -62 -149 -7.303538e-01 -2.505918e-01 -5.869317e-01 2.435123e-01 71 856 -175 -213 3 678 231 -2.504876e-01 6.934185e-01 4.702746e-01 4.850450e-01 2.854638
1595876285.064000 -1050 99 147 59 -62 -149 -7.303538e-01 -2.505918e-01 -5.869317e-01 2.435123e-01 72 856 -175 -213 885 -33 1080 -2.943809e-01 6.972243e-01 4.457523e-01 4.780408e-01 2.856110
1595876285.112000 -863 121 225 38 -22 106 -7.301143e-01 -2.564557e-01 -5.821380e-01 2.495575e-01 72 1063 -159 -437 885 -33 1080 -2.943809e-01 6.972243e-01 4.457523e-01 4.780408e-01 2.857447
1595876285.165000 -863 121 225 38 -22 106 -7.301143e-01 -2.564557e-01 -5.821380e-01 2.495575e-01 69 1063 -159 -437 885 -33 1080 -2.943809e-01 6.972243e-01 4.457523e-01 4.780408e-01 2.860358
1595876285.212000 -946 73 214 93 -150 -77 -7.346892e-01 -2.519161e-01 -5.787295e-01 2.486809e-01 67 839 43 -257 2092 -386 239 -3.578537e-01 6.991667e-01 4.680846e-01 4.049734e-01 2.864909
1595876285.264000 -946 73 214 93 -150 -77 -7.346892e-01 -2.519161e-01 -5.787295e-01 2.486809e-01 66 839 43 -257 1300 380 404 -4.365812e-01 6.585644e-01 4.898645e-01 3.684054e-01 2.877418
1595876285.312000 -964 88 182 -173 -119 -87 -7.371268e-01 -2.464007e-01 -5.766643e-01 2.517718e-01 66 876 -61 -277 1300 380 404 -4.365812e-01 6.585644e-01 4.898645e-01 3.684054e-01 2.889567
1595876285.364000 -964 88 182 -173 -119 -87 -7.371268e-01 -2.464007e-01 -5.766643e-01 2.517718e-01 65 876 -61 -277 -602 345 617 -4.620967e-01 6.646722e-01 4.621578e-01 3.620602e-01 2.916970
1595876285.412000 -944 66 211 -131 -69 44 -7.409959e-01 -2.419118e-01 -5.750211e-01 2.485044e-01 61 914 -172 -261 -602 345 617 -4.620967e-01 6.646722e-01 4.621578e-01 3.620602e-01 2.933733
1595876285.464000 -944 66 211 -131 -69 44 -7.409959e-01 -2.419118e-01 -5.750211e-01 2.485044e-01 62 914 -172 -261 -1122 -592 -349 -4.280989e-01 6.932956e-01 4.389631e-01 3.786606e-01 2.951766
1595876285.512000 -936 60 218 -119 -60 -3 -7.446023e-01 -2.378845e-01 -5.731936e-01 2.458201e-01 67 937 -221 -385 -1122 -592 -349 -4.280989e-01 6.932956e-01 4.389631e-01 3.786606e-01 2.976424
1595876285.564000 -936 60 218 -119 -60 -3 -7.446023e-01 -2.378845e-01 -5.731936e-01 2.458201e-01 70 937 -221 -385 -1122 -592 -349 -4.280989e-01 6.932956e-01 4.389631e-01 3.786606e-01 2.997828
1595876285.612000 -945 59 202 24 -102 43 -7.474752e-01 -2.358906e-01 -5.701300e-01 2.461467e-01 66 781 -206 -277 -682 -623 -1099 -3.612016e-01 7.065342e-01 4.655704e-01 3.919019e-01 3.016536
1595876285.664000 -945 59 202 24 -102 43 -7.474752e-01 -2.358906e-01 -5.701300e-01 2.461467e-01 65 781 -206 -277 69 -127 -810 -3.176297e-01 6.957457e-01 5.040326e-01 4.012486e-01 3.030118
1595876285.712000 -974 30 223 -87 -66 58 -7.497364e-01 -2.354065e-01 -5.680394e-01 2.445615e-01 64 1137 -201 -736 69 -127 -810 -3.176297e-01 6.957457e-01 5.040326e-01 4.012486e-01 3.040080
1595876285.764000 -974 30 223 -87 -66 58 -7.497364e-01 -2.354065e-01 -5.680394e-01 2.445615e-01 66 1137 -201 -736 305 -374 -248 -3.077317e-01 6.867506e-01 5.350210e-01 3.839627e-01 3.055870
1595876285.812000 -927 0 270 -62 16 -131 -7.501016e-01 -2.248474e-01 -5.716397e-01 2.449884e-01 71 819 -129 -433 305 -374 -248 -3.077317e-01 6.867506e-01 5.350210e-01 3.839627e-01 3.075719
1595876285.864000 -927 0 270 -62 16 -131 -7.501016e-01 -2.248474e-01 -5.716397e-01 2.449884e-01 82 819 -129 -433 -555 836 848 -3.323946e-01 6.794376e-01 5.076861e-01 4.124721e-01 3.088355
1595876285.912000 -957 38 270 35 42 -267 -7.465938e-01 -2.167904e-01 -5.750163e-01 2.548645e-01 77 812 -237 -328 -555 836 848 -3.323946e-01 6.794376e-01 5.076861e-01 4.124721e-01 3.094709
1595876285.964000 -957 38 270 35 42 -267 -7.465938e-01 -2.167904e-01 -5.750163e-01 2.548645e-01 71 812 -237 -328 -921 -589 868 -3.220192e-01 7.239939e-01 4.478728e-01 4.141816e-01 3.099492
1595876286.012000 -955 53 266 68 -50 -122 -7.445072e-01 -2.137102e-01 -5.749793e-01 2.635067e-01 69 867 -240 -432 -921 -589 868 -3.220192e-01 7.239939e-01 4.478728e-01 4.141816e-01 3.102419
1595876286.064000 -955 53 266 68 -50 -122 -7.445072e-01 -2.137102e-01 -5.749793e-01 2.635067e-01 69 867 -240 -432 -193 163 -897 -2.939501e-01 7.366454e-01 4.472119e-01 4.134590e-01 3.101843
1595876286.112000 -933 57 240 145 -145 105 -7.475734e-01 -2.188764e-01 -5.676382e-01 2.664848e-01 69 1004 -244 -489 -193 163 -897 -2.939501e-01 7.366454e-01 4.472119e-01 4.134590e-01 3.093854
1595876286.164000 -933 57 240 145 -145 105 -7.475734e-01 -2.188764e-01 -5.676382e-01 2.664848e-01 70 1004 -244 -489 -328 -276 -1253 -2.532406e-01 7.128458e-01 4.888417e-01 4.344581e-01 3.084507
1595876286.212000 -944 21 233 198 -147 219 -7.523908e-01 -2.281526e-01 -5.581132e-01 2.652625e-01 69 909 -212 -378 -328 -276 -1253 -2.532406e-01 7.128458e-01 4.888417e-01 4.344581e-01 3.071424
1595876286.264000 -944 21 233 198 -147 219 -7.523908e-01 -2.281526e-01 -5.581132e-01 2.652625e-01 67 909 -212 -378 376 43 -294 -2.346207e-01 6.910446e-01 5.202671e-01 4.435454e-01 3.040357
1595876286.312000 -924 14 234 147 -53 89 -7.531087e-01 -2.366320e-01 -5.531586e-01 2.661729e-01 65 1064 -92 -373 376 43 -294 -2.346207e-01 6.910446e-01 5.202671e-01 4.435454e-01 3.019900
1595876286.364000 -924 14 234 147 -53 89 -7.531087e-01 -2.366320e-01 -5.531586e-01 2.661729e-01 67 1064 -92 -373 1366 138 1480 -2.850349e-01 6.965960e-01 5.166029e-01 4.082041e-01 2.998180
1595876286.412000 -912 55 224 137 79 -136 -7.498325e-01 -2.403615e-01 -5.534173e-01 2.714900e-01 71 949 -42 -400 1366 138 1480 -2.850349e-01 6.965960e-01 5.166029e-01 4.082041e-01 2.970175
1595876286.464000 -912 55 224 137 79 -136 -7.498325e-01 -2.403615e-01 -5.534173e-01 2.714900e-01 67 949 -42 -400 1288 1495 1779 -4.001974e-01 6.970038e-01 4.661747e-01 3.697416e-01 2.955273
1595876286.512000 -950 84 258 -67 237 -211 -7.410136e-01 -2.407791e-01 -5.613296e-01 2.789863e-01 71 789 -50 -188 1288 1495 1779 -4.001974e-01 6.970038e-01 4.661747e-01 3.697416e-01 2.938894
1595876286.564000 -950 84 258 -67 237 -211 -7.410136e-01 -2.407791e-01 -5.613296e-01 2.789863e-01 72 789 -50 -188 378 1115 852 -4.915882e-01 6.760405e-01 4.035125e-01 3.721397e-01 2.928715
1595876286.612000 -946 34 298 29 88 -61 -7.347973e-01 -2.350448e-01 -5.717125e-01 2.792340e-01 67 789 -50 -188 378 1115 852 -4.915882e-01 6.760405e-01 4.035125e-01 3.721397e-01 2.921533
1595876286.664000 -946 34 298 29 88 -61 -7.347973e-01 -2.350448e-01 -5.717125e-01 2.792340e-01 63 800 -81 -209 -667 -465 -424 -4.878596e-01 6.792681e-01 3.931320e-01 3.821455e-01 2.914311
1595876286.712000 -964 46 244 16 -21 47 -7.365141e-01 -2.388925e-01 -5.672019e-01 2.806408e-01 64 856 -135 -350 -667 -465 -424 -4.878596e-01 6.792681e-01 3.931320e-01 3.821455e-01 2.913178
1595876286.764000 -964 46 244 16 -21 47 -7.365141e-01 -2.388925e-01 -5.672019e-01 2.806408e-01 65 856 -135 -350 -1745 -602 -1031 -4.150400e-01 7.012956e-01 4.129038e-01 4.067392e-01 2.914258
1595876286.812000 -921 23 253 -85 12 85 -7.374314e-01 -2.399917e-01 -5.668981e-01 2.778948e-01 69 1020 -135 -350 -1745 -602 -1031 -4.150400e-01 7.012956e-01 4.129038e-01 4.067392e-01 2.914823
1595876286.864000 -944 4 229 -38 -6 30 -7.402332e-01 -2.378536e-01 -5.663444e-01 2.733760e-01 0 0 0 0 0 0 0 0 0 0 0 2.910543
1595876286.912000 -944 4 229 -38 -6 30 -7.402332e-01 -2.378536e-01 -5.663444e-01 2.733760e-01 71 1003 -231 -449 -2402 -699 -932 -2.886367e-01 7.381629e-01 4.135763e-01 4.480614e-01 2.902377
1595876286.964000 -944 4 229 -38 -6 30 -7.402332e-01 -2.378536e-01 -5.663444e-01 2.733760e-01 69 1003 -231 -430 -1074 -857 -401 -1.977549e-01 7.605019e-01 4.049703e-01 4.674707e-01 2.889968
1595876287.012000 -917 39 231 -50 86 -46 -7.386051e-01 -2.386535e-01 -5.680685e-01 2.735054e-01 66 1136 -231 -430 -1074 -857 -401 -1.977549e-01 7.605019e-01 4.049703e-01 4.674707e-01 2.853917
1595876287.064000 -917 39 231 -50 86 -46 -7.386051e-01 -2.386535e-01 -5.680685e-01 2.735054e-01 71 1136 -280 -517 -977 -306 11 -1.418479e-01 7.807738e-01 3.949646e-01 4.628978e-01 2.823503
1595876287.112000 -924 66 236 -8 142 -109 -7.339948e-01 -2.369950e-01 -5.742689e-01 2.744088e-01 68 853 -225 -517 -977 -306 11 -1.418479e-01 7.807738e-01 3.949646e-01 4.628978e-01 2.782871
1595876287.164000 -924 66 236 -8 142 -109 -7.339948e-01 -2.369950e-01 -5.742689e-01 2.744088e-01 65 853 -225 -279 24 162 564 -1.295170e-01 7.891261e-01 3.763440e-01 4.678360e-01 2.724644
1595876287.212000 -975 68 236 71 100 38 -7.285273e-01 -2.378578e-01 -5.805146e-01 2.750898e-01 65 853 -225 -279 24 162 564 -1.295170e-01 7.891261e-01 3.763440e-01 4.678360e-01 2.665238
1595876287.264000 -975 68 236 71 100 38 -7.285273e-01 -2.378578e-01 -5.805146e-01 2.750898e-01 77 972 -176 -484 635 321 1146 -1.787104e-01 7.982763e-01 3.501576e-01 4.562974e-01 2.611258
1595876287.312000 -967 39 213 61 -64 247 -7.308458e-01 -2.457922e-01 -5.765466e-01 2.702677e-01 71 945 -169 -484 635 321 1146 -1.787104e-01 7.982763e-01 3.501576e-01 4.562974e-01 2.528419
1595876287.364000 -967 39 213 61 -64 247 -7.308458e-01 -2.457922e-01 -5.765466e-01 2.702677e-01 68 945 -169 -514 1174 1135 1108 -2.601892e-01 7.814220e-01 3.135942e-01 4.725885e-01 2.508054
1595876287.412000 -923 41 212 -3 18 129 -7.335190e-01 -2.536616e-01 -5.724476e-01 2.644038e-01 84 756 -198 -325 742 470 813 -3.258108e-01 7.631955e-01 2.794843e-01 4.829787e-01 2.416826
1595876287.464000 -923 41 212 -3 18 129 -7.335190e-01 -2.536616e-01 -5.724476e-01 2.644038e-01 78 756 -198 -325 742 470 813 -3.258108e-01 7.631955e-01 2.794843e-01 4.829787e-01 2.364695
1595876287.512000 -936 74 183 5 56 -22 -7.326478e-01 -2.555479e-01 -5.732890e-01 2.631771e-01 66 766 -198 -325 742 470 813 -3.258108e-01 7.631955e-01 2.794843e-01 4.829787e-01 2.333778
1595876287.564000 -936 74 183 5 56 -22 -7.326478e-01 -2.555479e-01 -5.732890e-01 2.631771e-01 63 766 -167 -378 981 3 -73 -3.644399e-01 7.553690e-01 2.906486e-01 4.605700e-01 2.262880
1595876287.612000 -946 72 182 -65 31 23 -7.310238e-01 -2.549458e-01 -5.767867e-01 2.606222e-01 64 889 -152 -378 981 3 -73 -3.644399e-01 7.553690e-01 2.906486e-01 4.605700e-01 2.219525
1595876287.664000 -946 72 182 -65 31 23 -7.310238e-01 -2.549458e-01 -5.767867e-01 2.606222e-01 70 889 -152 -468 72 -142 -524 -3.684110e-01 7.419491e-01 3.229395e-01 4.577062e-01 2.193112
1595876287.712000 -987 70 167 7 23 81 -7.313871e-01 -2.568369e-01 -5.769675e-01 2.573252e-01 69 961 -152 -468 72 -142 -524 -3.684110e-01 7.419491e-01 3.229395e-01 4.577062e-01 2.169776
1595876287.764000 -987 70 167 7 23 81 -7.313871e-01 -2.568369e-01 -5.769675e-01 2.573252e-01 68 961 -195 -445 -897 -468 -538 -3.289145e-01 7.480990e-01 3.344687e-01 4.693547e-01 2.132094
1595876287.812000 -931 82 188 35 60 0 -7.300293e-01 -2.603716e-01 -5.778101e-01 2.557330e-01 64 1075 -225 -445 -897 -468 -538 -3.289145e-01 7.480990e-01 3.344687e-01 4.693547e-01 2.110936
1595876287.864000 -931 82 188 35 60 0 -7.300293e-01 -2.603716e-01 -5.778101e-01 2.557330e-01 70 1075 -225 -488 -752 -577 -596 -2.657367e-01 7.659003e-01 3.438587e-01 4.738585e-01 2.093992
1595876287.912000 -979 97 176 28 38 -62 -7.276273e-01 -2.597753e-01 -5.805270e-01 2.570286e-01 63 762 -225 -488 -752 -577 -596 -2.657367e-01 7.659003e-01 3.438587e-01 4.738585e-01 2.065502
1595876287.964000 -979 97 176 28 38 -62 -7.276273e-01 -2.597753e-01 -5.805270e-01 2.570286e-01 64 762 -144 -294 -164 -37 196 -2.408434e-01 7.724568e-01 3.476544e-01 4.737524e-01 2.025130
1595876288.012000 -970 93 180 -62 37 5 -7.262565e-01 -2.597653e-01 -5.825189e-01 2.564084e-01 70 959 -162 -294 -164 -37 196 -2.408434e-01 7.724568e-01 3.476544e-01 4.737524e-01 2.004565
1595876288.064000 -970 93 180 -62 37 5 -7.262565e-01 -2.597653e-01 -5.825189e-01 2.564084e-01 68 959 -162 -415 -345 189 934 -2.422534e-01 7.906044e-01 3.099428e-01 4.692478e-01 1.989276
1595876288.112000 -946 90 199 -32 23 13 -7.260000e-01 -2.596389e-01 -5.834855e-01 2.550613e-01 77 801 -154 -415 -345 189 934 -2.422534e-01 7.906044e-01 3.099428e-01 4.692478e-01 1.954232
1595876288.164000 -946 90 199 -32 23 13 -7.260000e-01 -2.596389e-01 -5.834855e-01 2.550613e-01 66 801 -154 -198 -257 24 430 -2.517091e-01 7.970586e-01 2.686769e-01 4.786990e-01 1.925483
1595876288.212000 -957 95 170 -37 -2 4 -7.266219e-01 -2.587885e-01 -5.834337e-01 2.542719e-01 76 878 -209 -198 -257 24 430 -2.517091e-01 7.970586e-01 2.686769e-01 4.786990e-01 1.897708
1595876288.264000 -957 95 170 -37 -2 4 -7.266219e-01 -2.587885e-01 -5.834337e-01 2.542719e-01 68 878 -209 -310 -316 -140 -245 -2.343697e-01 8.067446e-01 2.561588e-01 4.781387e-01 1.880823
1595876288.312000 -964 87 169 -20 -17 34 -7.273374e-01 -2.576228e-01 -5.839084e-01 2.523129e-01 72 904 -166 -310 -316 -140 -245 -2.343697e-01 8.067446e-01 2.561588e-01 4.781387e-01 1.841576
1595876288.364000 -964 87 169 -20 -17 34 -7.273374e-01 -2.576228e-01 -5.839084e-01 2.523129e-01 68 904 -166 -352 17 -222 -598 -2.139271e-01 8.039510e-01 2.767320e-01 4.809546e-01 1.810420
1595876288.412000 -951 72 174 21 -19 62 -7.283276e-01 -2.594587e-01 -5.826987e-01 2.503645e-01 68 908 -195 -352 17 -222 -598 -2.139271e-01 8.039510e-01 2.767320e-01 4.809546e-01 1.786292
1595876288.464000 -951 72 174 21 -19 62 -7.283276e-01 -2.594587e-01 -5.826987e-01 2.503645e-01 68 908 -195 -369 -280 -179 -384 -2.026943e-01 8.036362e-01 2.869824e-01 4.803385e-01 1.748670
1595876288.512000 -961 72 182 7 14 -26 -7.282838e-01 -2.600142e-01 -5.825294e-01 2.503094e-01 68 1014 -204 -369 -280 -179 -384 -2.026943e-01 8.036362e-01 2.869824e-01 4.803385e-01 1.716825
1595876288.564000 -961 72 182 7 14 -26 -7.282838e-01 -2.600142e-01 -5.825294e-01 2.503094e-01 68 1014 -204 -476 -446 -166 -124 -1.853072e-01 8.042187e-01 2.883371e-01 4.855464e-01 1.680915
1595876288.612000 -947 84 191 -17 19 -59 -7.272474e-01 -2.583056e-01 -5.840563e-01 2.515306e-01 67 999 -204 -476 -446 -166 -124 -1.853072e-01 8.042187e-01 2.883371e-01 4.855464e-01 1.625840
1595876288.664000 -947 84 191 -17 19 -59 -7.272474e-01 -2.583056e-01 -5.840563e-01 2.515306e-01 77 999 -254 -392 -229 -107 -8 -1.636926e-01 8.093688e-01 2.786191e-01 4.904063e-01 1.567129
1595876288.712000 -956 100 195 -24 12 -38 -7.266608e-01 -2.560951e-01 -5.853690e-01 2.524331e-01 68 833 -195 -392 -229 -107 -8 -1.636926e-01 8.093688e-01 2.786191e-01 4.904063e-01 1.522875
1595876288.764000 -956 100 195 -24 12 -38 -7.266608e-01 -2.560951e-01 -5.853690e-01 2.524331e-01 67 833 -195 -350 510 192 485 -1.808437e-01 8.083953e-01 2.737985e-01 4.886992e-01 1.458912
1595876288.812000 -956 86 185 -30 -18 30 -7.278466e-01 -2.549447e-01 -5.850239e-01 2.509774e-01 69 984 -213 -350 510 192 485 -1.808437e-01 8.083953e-01 2.737985e-01 4.886992e-01 1.410306
1595876288.864000 -956 86 185 -30 -18 30 -7.278466e-01 -2.549447e-01 -5.850239e-01 2.509774e-01 63 984 -213 -516 1015 664 538 -2.354159e-01 7.989614e-01 2.660560e-01 4.852363e-01 1.349046
1595876288.912000 -951 73 186 -17 -23 70 -7.296108e-01 -2.561023e-01 -5.831271e-01 2.490833e-01 63 772 -185 -516 1015 664 538 -2.354159e-01 7.989614e-01 2.660560e-01 4.852363e-01 1.293068
1595876288.964000 -951 73 186 -17 -23 70 -7.296108e-01 -2.561023e-01 -5.831271e-01 2.490833e-01 66 772 -185 -367 1159 370 340 -3.025522e-01 7.719139e-01 2.699593e-01 4.896255e-01 1.225493
1595876289.012000 -947 62 180 -24 -3 4 -7.310208e-01 -2.562266e-01 -5.818503e-01 2.478037e-01 65 775 -178 -367 1159 370 340 -3.025522e-01 7.719139e-01 2.699593e-01 4.896255e-01 1.179316
1595876289.064000 -947 62 180 -24 -3 4 -7.310208e-01 -2.562266e-01 -5.818503e-01 2.478037e-01 65 775 -178 -382 736 90 302 -3.491808e-01 7.589082e-01 2.822255e-01 4.716778e-01 1.151638
1595876289.112000 -945 74 185 -19 9 -42 -7.307150e-01 -2.548225e-01 -5.824602e-01 2.487190e-01 64 795 -178 -382 736 90 302 -3.491808e-01 7.589082e-01 2.822255e-01 4.716778e-01 1.109489
1595876289.164000 -945 74 185 -19 9 -42 -7.307150e-01 -2.548225e-01 -5.824602e-01 2.487190e-01 65 795 -169 -384 130 24 124 -3.569317e-01 7.595175e-01 2.944320e-01 4.572119e-01 1.062137
1595876289.212000 -959 86 176 21 5 -24 -7.298391e-01 -2.544488e-01 -5.829924e-01 2.504206e-01 63 869 -190 -384 130 24 124 -3.569317e-01 7.595175e-01 2.944320e-01 4.572119e-01 1.030397
1595876289.264000 -959 86 176 21 5 -24 -7.298391e-01 -2.544488e-01 -5.829924e-01 2.504206e-01 62 869 -190 -395 -374 -191 -155 -3.453311e-01 7.669548e-01 2.952221e-01 4.531784e-01 1.009901
1595876289.312000 -945 90 185 54 6 24 -7.293018e-01 -2.565892e-01 -5.823306e-01 2.513403e-01 61 1042 -222 -395 -374 -191 -155 -3.453311e-01 7.669548e-01 2.952221e-01 4.531784e-01 0.985089
1595876289.364000 -945 90 185 54 6 24 -7.293018e-01 -2.565892e-01 -5.823306e-01 2.513403e-01 63 1042 -222 -436 -529 -716 -852 -3.037730e-01 7.806424e-01 3.146984e-01 4.464127e-01 0.952645
1595876289.412000 -949 86 176 45 12 45 -7.290582e-01 -2.595191e-01 -5.814155e-01 2.511573e-01 62 942 -197 -436 -529 -716 -852 -3.037730e-01 7.806424e-01 3.146984e-01 4.464127e-01 0.932377
1595876289.464000 -949 86 176 45 12 45 -7.290582e-01 -2.595191e-01 -5.814155e-01 2.511573e-01 61 942 -197 -377 -169 -454 -1135 -2.503020e-01 7.829490e-01 3.643142e-01 4.377385e-01 0.904289
1595876289.512000 -962 76 177 48 9 61 -7.288844e-01 -2.632455e-01 -5.803243e-01 2.503060e-01 62 803 -133 -377 -169 -454 -1135 -2.503020e-01 7.829490e-01 3.643142e-01 4.377385e-01 0.881234
1595876289.564000 -962 76 177 48 9 61 -7.288844e-01 -2.632455e-01 -5.803243e-01 2.503060e-01 61 803 -133 -389 -430 46 55 -2.256535e-01 7.764507e-01 3.847768e-01 4.451423e-01 0.852619
1595876289.612000 -957 76 177 -4 47 -26 -7.279054e-01 -2.655640e-01 -5.804444e-01 2.504273e-01 61 996 -133 -389 -430 46 55 -2.256535e-01 7.764507e-01 3.847768e-01 4.451423e-01 0.836188
1595876289.664000 -957 76 177 -4 47 -26 -7.279054e-01 -2.655640e-01 -5.804444e-01 2.504273e-01 61 996 -133 -389 -430 46 55 -2.256535e-01 7.764507e-01 3.847768e-01 4.451423e-01 0.792606
1595876289.712000 -964 104 178 13 36 -61 -7.254274e-01 -2.646574e-01 -5.832106e-01 2.521448e-01 67 756 -179 -500 -676 708 1139 -2.260193e-01 7.881073e-01 3.373504e-01 4.625980e-01 0.769459
1595876289.764000 -964 104 178 13 36 -61 -7.254274e-01 -2.646574e-01 -5.832106e-01 2.521448e-01 64 756 -176 -232 -357 27 911 -2.400518e-01 7.996844e-01 2.704474e-01 4.793101e-01 0.742567
1595876289.812000 -935 104 165 -6 55 -66 -7.234420e-01 -2.631198e-01 -5.860533e-01 2.528660e-01 66 850 -199 -232 -357 27 911 -2.400518e-01 7.996844e-01 2.704474e-01 4.793101e-01 0.713068
1595876289.864000 -935 104 165 -6 55 -66 -7.234420e-01 -2.631198e-01 -5.860533e-01 2.528660e-01 62 850 -199 -308 -140 -121 -274 -2.388879e-01 8.118161e-01 2.607382e-01 4.646535e-01 0.673676
1595876289.912000 -986 111 155 61 48 -16 -7.205322e-01 -2.644698e-01 -5.883888e-01 2.543378e-01 62 946 -214 -308 -140 -121 -274 -2.388879e-01 8.118161e-01 2.607382e-01 4.646535e-01 0.654418
1595876289.964000 -986 111 155 61 48 -16 -7.205322e-01 -2.644698e-01 -5.883888e-01 2.543378e-01 67 946 -214 -298 129 -719 -1032 -2.170994e-01 8.080346e-01 2.995569e-01 4.584905e-01 0.616747
1595876290.012000 -965 104 143 153 -53 256 -7.203874e-01 -2.761190e-01 -5.834875e-01 2.536584e-01 63 1034 -214 -298 129 -719 -1032 -2.170994e-01 8.080346e-01 2.995569e-01 4.584905e-01 0.597077
1595876290.064000 -965 104 143 153 -53 256 -7.203874e-01 -2.761190e-01 -5.834875e-01 2.536584e-01 61 1034 -213 -489 174 -309 -1009 -1.927464e-01 7.985122e-01 3.613233e-01 4.412172e-01 0.536535
1595876290.112000 -931 74 147 92 -58 200 -7.238388e-01 -2.863860e-01 -5.763732e-01 2.486651e-01 61 1000 -213 -489 174 -309 -1009 -1.927464e-01 7.985122e-01 3.613233e-01 4.412172e-01 0.511327
1595876290.164000 -931 74 147 92 -58 200 -7.238388e-01 -2.863860e-01 -5.763732e-01 2.486651e-01 62 1000 -207 -503 472 433 -14 -1.967202e-01 7.850497e-01 3.862381e-01 4.425136e-01 0.459080
1595876290.212000 -939 74 129 71 30 -22 -7.217450e-01 -2.888811e-01 -5.767246e-01 2.510391e-01 61 729 -172 -503 472 433 -14 -1.967202e-01 7.850497e-01 3.862381e-01 4.425136e-01 0.425527
1595876290.264000 -939 74 129 71 30 -22 -7.217450e-01 -2.888811e-01 -5.767246e-01 2.510391e-01 63 729 -172 -365 950 815 873 -2.534808e-01 7.716730e-01 3.751858e-01 4.466585e-01 0.378384
1595876290.312000 -982 124 176 10 192 -328 -7.130043e-01 -2.853970e-01 -5.858085e-01 2.588470e-01 65 1004 -217 -365 950 815 873 -2.534808e-01 7.716730e-01 3.751858e-01 4.466585e-01 0.342495
1595876290.364000 -982 124 176 10 192 -328 -7.130043e-01 -2.853970e-01 -5.858085e-01 2.588470e-01 64 1004 -217 -365 950 815 873 -2.534808e-01 7.716730e-01 3.751858e-01 4.466585e-01 0.323334
1595876290.412000 -978 136 180 66 -15 -23 -7.085930e-01 -2.843527e-01 -5.889073e-01 2.650052e-01 66 742 -217 -602 1053 310 574 -3.223901e-01 7.638608e-01 3.605374e-01 4.273104e-01 0.282925
1595876290.464000 -978 136 180 66 -15 -23 -7.085930e-01 -2.843527e-01 -5.889073e-01 2.650052e-01 72 742 -162 -401 911 536 70 -3.770073e-01 7.328967e-01 3.609553e-01 4.363934e-01 0.261774
1595876290.512000 -946 122 174 -49 -58 29 -7.122042e-01 -2.868592e-01 -5.836669e-01 2.642156e-01 84 907 -225 -493 628 -72 76 -4.099171e-01 7.189419e-01 3.754319e-01 4.173025e-01 0.246383
1595876290.612000 -958 120 148 -21 -118 83 -7.167807e-01 -2.864315e-01 -5.790275e-01 2.625063e-01 68 877 -225 -493 628 -72 76 -4.099171e-01 7.189419e-01 3.754319e-01 4.173025e-01 0.215854
1595876290.664000 -958 120 148 -21 -118 83 -7.167807e-01 -2.864315e-01 -5.790275e-01 2.625063e-01 68 877 -165 -461 711 37 18 -4.400005e-01 6.979339e-01 3.955060e-01 4.035627e-01 0.212512
1595876290.712000 -915 94 142 -52 -36 68 -7.208762e-01 -2.860678e-01 -5.759807e-01 2.583582e-01 69 821 -162 -461 711 37 18 -4.400005e-01 6.979339e-01 3.955060e-01 4.035627e-01 0.213434
1595876290.764000 -915 94 142 -52 -36 68 -7.208762e-01 -2.860678e-01 -5.759807e-01 2.583582e-01 69 821 -162 -331 163 -205 201 -4.611895e-01 6.891597e-01 4.030831e-01 3.871526e-01 0.218859
1595876290.812000 -916 97 176 -168 129 -139 -7.193569e-01 -2.802111e-01 -5.818454e-01 2.558581e-01 64 898 -162 -331 163 -205 201 -4.611895e-01 6.891597e-01 4.030831e-01 3.871526e-01 0.231974
1595876290.864000 -916 97 176 -168 129 -139 -7.193569e-01 -2.802111e-01 -5.818454e-01 2.558581e-01 61 898 -178 -391 31 -312 -302 -4.589268e-01 6.898856e-01 4.215120e-01 3.684720e-01 0.250435
1595876290.912000 -1013 95 152 -155 21 54 -7.189269e-01 -2.771582e-01 -5.853221e-01 2.524392e-01 60 879 -178 -391 31 -312 -302 -4.589268e-01 6.898856e-01 4.215120e-01 3.684720e-01 0.277694
1595876290.964000 -1013 95 152 -155 21 54 -7.189269e-01 -2.771582e-01 -5.853221e-01 2.524392e-01 58 879 -163 -400 -503 -116 -311 -4.293949e-01 6.888019e-01 4.467904e-01 3.762317e-01 0.305418
1595876291.012000 -958 87 161 -57 -46 68 -7.215062e-01 -2.760047e-01 -5.847246e-01 2.476840e-01 58 858 -163 -400 -503 -116 -311 -4.293949e-01 6.888019e-01 4.467904e-01 3.762317e-01 0.343172
1595876291.064000 -958 87 161 -57 -46 68 -7.215062e-01 -2.760047e-01 -5.847246e-01 2.476840e-01 60 858 -184 -401 -794 -86 -178 -3.941689e-01 6.992867e-01 4.495894e-01 3.917886e-01 0.381503
1595876291.112000 -939 103 159 89 -53 76 -7.234096e-01 -2.780232e-01 -5.817429e-01 2.468944e-01 61 930 -184 -401 -794 -86 -178 -3.941689e-01 6.992867e-01 4.495894e-01 3.917886e-01 0.418210
1595876291.164000 -939 103 159 89 -53 76 -7.234096e-01 -2.780232e-01 -5.817429e-01 2.468944e-01 60 930 -199 -497 -1093 37 -39 -3.577877e-01 7.139884e-01 4.387202e-01 4.119868e-01 0.466138
1595876291.212000 -945 99 149 75 -8 30 -7.238296e-01 -2.826592e-01 -5.787463e-01 2.474412e-01 64 856 -199 -497 -1093 37 -39 -3.577877e-01 7.139884e-01 4.387202e-01 4.119868e-01 0.511625
1595876291.264000 -945 99 149 75 -8 30 -7.238296e-01 -2.826592e-01 -5.787463e-01 2.474412e-01 61 856 -204 -384 -1265 78 135 -3.181139e-01 7.321746e-01 4.087507e-01 4.423199e-01 0.571365
1595876291.312000 -927 96 175 -23 89 -90 -7.209478e-01 -2.834475e-01 -5.809331e-01 2.498171e-01 63 1008 -204 -384 -1265 78 135 -3.181139e-01 7.321746e-01 4.087507e-01 4.423199e-01 0.608753
1595876291.364000 -927 96 175 -23 89 -90 -7.209478e-01 -2.834475e-01 -5.809331e-01 2.498171e-01 65 1008 -256 -344 -870 -632 -435 -2.659870e-01 7.548709e-01 3.955016e-01 4.505544e-01 0.650215
1595876291.412000 -993 98 193 110 29 -146 -7.170435e-01 -2.812510e-01 -5.847798e-01 2.545175e-01 62 1107 -256 -344 -870 -632 -435 -2.659870e-01 7.548709e-01 3.955016e-01 4.505544e-01 0.692275
1595876291.464000 -993 98 193 110 29 -146 -7.170435e-01 -2.812510e-01 -5.847798e-01 2.545175e-01 63 1107 -265 -363 -123 -975 -1271 -2.070916e-01 7.575659e-01 4.343248e-01 4.410997e-01 0.713568
1595876291.512000 -933 122 164 79 -76 0 -7.146724e-01 -2.858934e-01 -5.821629e-01 2.619061e-01 66 952 -186 -363 -123 -975 -1271 -2.070916e-01 7.575659e-01 4.343248e-01 4.410997e-01 0.739871
1595876291.564000 -933 122 164 79 -76 0 -7.146724e-01 -2.858934e-01 -5.821629e-01 2.619061e-01 63 952 -186 -283 451 -258 -778 -1.846276e-01 7.389378e-01 4.877221e-01 4.266272e-01 0.749958
1595876291.612000 -970 94 152 -118 16 -162 -7.155781e-01 -2.807014e-01 -5.831925e-01 2.627570e-01 63 871 -208 -283 451 -258 -778 -1.846276e-01 7.389378e-01 4.877221e-01 4.266272e-01 0.754988
1595876291.664000 -970 94 152 -118 16 -162 -7.155781e-01 -2.807014e-01 -5.831925e-01 2.627570e-01 62 871 -208 -292 109 699 263 -1.948881e-01 7.262067e-01 4.972606e-01 4.328676e-01 0.756309
1595876291.712000 -939 107 150 -57 -2 -60 -7.141787e-01 -2.760645e-01 -5.857596e-01 2.657494e-01 61 942 -208 -292 109 699 263 -1.948881e-01 7.262067e-01 4.972606e-01 4.328676e-01 0.751795
1595876291.764000 -939 107 150 -57 -2 -60 -7.141787e-01 -2.760645e-01 -5.857596e-01 2.657494e-01 58 942 -220 -420 765 964 816 -2.519545e-01 7.179604e-01 4.714991e-01 4.458032e-01 0.748197
1595876291.812000 -959 110 139 -117 22 -69 -7.148307e-01 -2.734325e-01 -5.867813e-01 2.644605e-01 58 958 -186 -420 765 964 816 -2.519545e-01 7.179604e-01 4.714991e-01 4.458032e-01 0.744009
1595876291.864000 -959 110 139 -117 22 -69 -7.148307e-01 -2.734325e-01 -5.867813e-01 2.644605e-01 58 958 -186 -435 1420 754 989 -3.407080e-01 6.999102e-01 4.499031e-01 4.377567e-01 0.744432
1595876291.912000 -975 107 156 34 -13 54 -7.146995e-01 -2.693398e-01 -5.892151e-01 2.636026e-01 57 932 -186 -435 1420 754 989 -3.407080e-01 6.999102e-01 4.499031e-01 4.377567e-01 0.749590
1595876291.964000 -975 107 156 34 -13 54 -7.146995e-01 -2.693398e-01 -5.892151e-01 2.636026e-01 56 932 -157 -467 1396 391 1018 -4.293333e-01 6.812935e-01 4.341552e-01 4.037589e-01 0.763634
1595876292.012000 -935 73 179 139 -137 253 -7.185638e-01 -2.766101e-01 -5.825170e-01 2.604359e-01 56 893 -157 -467 1396 391 1018 -4.293333e-01 6.812935e-01 4.341552e-01 4.037589e-01 0.798342
1595876292.064000 -935 73 179 139 -137 253 -7.185638e-01 -2.766101e-01 -5.825170e-01 2.604359e-01 58 893 -121 -392 1177 340 765 -4.985379e-01 6.621741e-01 4.238305e-01 3.651754e-01 0.819110
1595876292.164000 -979 70 130 260 -180 193 -7.234433e-01 -2.861913e-01 -5.718333e-01 2.602516e-01 55 763 -62 -262 514 128 300 -5.446934e-01 6.436342e-01 4.187132e-01 3.372289e-01 0.924181
1595876292.212000 -888 127 164 135 105 -31 -7.205791e-01 -2.985221e-01 -5.662216e-01 2.665398e-01 60 1025 -117 -262 514 128 300 -5.446934e-01 6.436342e-01 4.187132e-01 3.372289e-01 0.959816
1595876292.264000 -888 127 164 135 105 -31 -7.205791e-01 -2.985221e-01 -5.662216e-01 2.665398e-01 62 1025 -117 -480 -1356 -649 -533 -5.237987e-01 6.573424e-01 4.227865e-01 3.388029e-01 0.988204
1595876292.312000 -954 116 172 91 108 -186 -7.139450e-01 -2.967599e-01 -5.735609e-01 2.706363e-01 60 926 -188 -480 -1356 -649 -533 -5.237987e-01 6.573424e-01 4.227865e-01 3.388029e-01 1.097176
1595876292.364000 -954 116 172 91 108 -186 -7.139450e-01 -2.967599e-01 -5.735609e-01 2.706363e-01 65 926 -188 -480 -1356 -649 -533 -5.237987e-01 6.573424e-01 4.227865e-01 3.388029e-01 1.189684
1595876292.412000 -1010 119 136 -33 61 -166 -7.085440e-01 -2.919868e-01 -5.798842e-01 2.764841e-01 65 926 -188 -480 -1356 -649 -533 -5.237987e-01 6.573424e-01 4.227865e-01 3.388029e-01 1.269694
1595876292.464000 -1010 119 136 -33 61 -166 -7.085440e-01 -2.919868e-01 -5.798842e-01 2.764841e-01 70 941 -258 -483 -2778 -455 -930 -2.558570e-01 7.351616e-01 4.374959e-01 4.501911e-01 1.349229
1595876292.512000 -961 108 154 -90 -1 -37 -7.066703e-01 -2.902243e-01 -5.824628e-01 2.777120e-01 74 1015 -299 -483 -2778 -455 -930 -2.558570e-01 7.351616e-01 4.374959e-01 4.501911e-01 1.408424
1595876292.564000 -961 108 154 -90 -1 -37 -7.066703e-01 -2.902243e-01 -5.824628e-01 2.777120e-01 79 1015 -299 -593 -1560 244 -363 -1.544773e-01 7.487054e-01 4.116751e-01 4.960852e-01 1.483418
1595876292.612000 -1030 85 150 -90 -102 -168 -7.090468e-01 -2.802740e-01 -5.838634e-01 2.789312e-01 76 759 -233 -593 -1560 244 -363 -1.544773e-01 7.487054e-01 4.116751e-01 4.960852e-01 1.546680
1595876292.664000 -1030 85 150 -90 -102 -168 -7.090468e-01 -2.802740e-01 -5.838634e-01 2.789312e-01 79 759 -233 -403 -1616 513 601 -1.054092e-01 7.492778e-01 3.601734e-01 5.456618e-01 1.599217
1595876292.712000 -941 56 199 -33 -164 -30 -7.131236e-01 -2.720294e-01 -5.815949e-01 2.814287e-01 79 898 -328 -417 -966 -314 1010 -7.507472e-02 7.730865e-01 2.789362e-01 5.647084e-01 1.624266
1595876292.764000 -941 56 199 -33 -164 -30 -7.131236e-01 -2.720294e-01 -5.815949e-01 2.814287e-01 76 898 -328 -417 -966 -314 1010 -7.507472e-02 7.730865e-01 2.789362e-01 5.647084e-01 1.663005
1595876292.812000 -925 51 199 50 -150 -25 -7.176356e-01 -2.685488e-01 -5.755489e-01 2.856993e-01 73 975 -330 -417 -966 -314 1010 -7.507472e-02 7.730865e-01 2.789362e-01 5.647084e-01 1.691908
1595876292.864000 -925 51 199 50 -150 -25 -7.176356e-01 -2.685488e-01 -5.755489e-01 2.856993e-01 68 975 -330 -306 1403 -274 116 -9.667889e-02 7.897884e-01 2.659890e-01 5.441850e-01 1.702043
1595876292.912000 -909 47 181 -17 -74 -24 -7.207871e-01 -2.677087e-01 -5.708190e-01 2.880341e-01 63 1148 -330 -306 1403 -274 116 -9.667889e-02 7.897884e-01 2.659890e-01 5.441850e-01 1.707862
1595876292.964000 -909 47 181 -17 -74 -24 -7.207871e-01 -2.677087e-01 -5.708190e-01 2.880341e-01 62 1148 -207 -445 3356 -622 -700 -1.898186e-01 7.780123e-01 3.595568e-01 4.789411e-01 1.715372
1595876293.012000 -933 52 185 -79 16 13 -7.209572e-01 -2.681922e-01 -5.705645e-01 2.876627e-01 63 1015 -207 -445 3356 -622 -700 -1.898186e-01 7.780123e-01 3.595568e-01 4.789411e-01 1.724440
1595876293.064000 -933 52 185 -79 16 13 -7.209572e-01 -2.681922e-01 -5.705645e-01 2.876627e-01 64 1015 -31 -427 1733 470 -436 -2.839363e-01 7.275410e-01 4.506848e-01 4.323742e-01 1.734512
1595876293.112000 -953 34 210 -16 26 62 -7.207724e-01 -2.694123e-01 -5.716008e-01 2.849154e-01 64 725 -111 -427 1733 470 -436 -2.839363e-01 7.275410e-01 4.506848e-01 4.323742e-01 1.746029
1595876293.164000 -953 34 210 -16 26 62 -7.207724e-01 -2.694123e-01 -5.716008e-01 2.849154e-01 64 725 -111 -208 152 679 505 -3.261744e-01 7.078913e-01 4.450108e-01 4.409825e-01 1.756195
1595876293.212000 -946 44 209 118 -29 60 -7.210712e-01 -2.734382e-01 -5.687270e-01 2.860725e-01 62 847 -111 -208 152 679 505 -3.261744e-01 7.078913e-01 4.450108e-01 4.409825e-01 1.769585
1595876293.264000 -946 44 209 118 -29 60 -7.210712e-01 -2.734382e-01 -5.687270e-01 2.860725e-01 62 847 -205 -391 132 267 781 -3.502071e-01 7.166489e-01 4.105687e-01 4.418175e-01 1.786222
1595876293.312000 -943 66 204 156 -35 -21 -7.202318e-01 -2.773503e-01 -5.656261e-01 2.905342e-01 62 833 -219 -391 132 267 781 -3.502071e-01 7.166489e-01 4.105687e-01 4.418175e-01 1.800212
1595876293.364000 -943 66 204 156 -35 -21 -7.202318e-01 -2.773503e-01 -5.656261e-01 2.905342e-01 64 833 -219 -274 905 -200 181 -3.852523e-01 7.147187e-01 3.977034e-01 4.273053e-01 1.828142
1595876293.412000 -959 82 201 147 -39 -48 -7.187088e-01 -2.811967e-01 -5.624545e-01 2.967001e-01 62 809 -219 -274 905 -200 181 -3.852523e-01 7.147187e-01 3.977034e-01 4.273053e-01 1.854288
1595876293.464000 -959 82 201 147 -39 -48 -7.187088e-01 -2.811967e-01 -5.624545e-01 2.967001e-01 63 809 -155 -349 1072 -526 -128 -4.130242e-01 7.028796e-01 4.329216e-01 3.846429e-01 1.893144
1595876293.512000 -955 86 207 63 -27 -47 -7.172251e-01 -2.841801e-01 -5.601204e-01 3.018193e-01 67 1000 -155 -349 1072 -526 -128 -4.130242e-01 7.028796e-01 4.329216e-01 3.846429e-01 1.914017
1595876293.564000 -955 86 207 63 -27 -47 -7.172251e-01 -2.841801e-01 -5.601204e-01 3.018193e-01 72 1000 -165 -476 493 -705 -100 -4.267695e-01 6.942329e-01 4.593632e-01 3.534033e-01 1.949220
1595876293.612000 -969 76 210 82 -48 -31 -7.166759e-01 -2.850346e-01 -5.581674e-01 3.059087e-01 64 803 -165 -476 493 -705 -100 -4.267695e-01 6.942329e-01 4.593632e-01 3.534033e-01 1.995726
1595876293.664000 -969 76 210 82 -48 -31 -7.166759e-01 -2.850346e-01 -5.581674e-01 3.059087e-01 62 803 -157 -369 508 -624 -587 -4.266926e-01 6.820611e-01 4.911451e-01 3.339200e-01 2.065688
1595876293.712000 -951 48 224 -99 -14 -39 -7.171758e-01 -2.843678e-01 -5.569557e-01 3.075616e-01 66 1075 -157 -369 508 -624 -587 -4.266926e-01 6.820611e-01 4.911451e-01 3.339200e-01 2.120784
1595876293.764000 -951 48 224 -99 -14 -39 -7.171758e-01 -2.843678e-01 -5.569557e-01 3.075616e-01 68 1075 -176 -602 -621 -206 -850 -3.848833e-01 6.806563e-01 5.358216e-01 3.185389e-01 2.168894
1595876293.812000 -943 41 243 -137 16 -69 -7.175947e-01 -2.785661e-01 -5.595127e-01 3.072528e-01 65 790 -176 -602 -621 -206 -850 -3.848833e-01 6.806563e-01 5.358216e-01 3.185389e-01 2.218629
1595876293.864000 -943 41 243 -137 16 -69 -7.175947e-01 -2.785661e-01 -5.595127e-01 3.072528e-01 61 790 -201 -298 -1143 -691 -659 -3.225678e-01 6.871885e-01 5.457103e-01 3.548551e-01 2.278740
1595876293.912000 -950 85 231 -96 1 -68 -7.185533e-01 -2.733103e-01 -5.604752e-01 3.079776e-01 63 970 -201 -298 -1143 -691 -659 -3.225678e-01 6.871885e-01 5.457103e-01 3.548551e-01 2.308537
1595876293.964000 -971 78 226 -49 -81 36 -7.211976e-01 -2.663597e-01 -5.615893e-01 3.058498e-01 0 0 0 0 0 0 0 0 0 0 0 2.367163
1595876294.012000 -971 78 226 -49 -81 36 -7.211976e-01 -2.663597e-01 -5.615893e-01 3.058498e-01 65 863 -197 -493 -729 -241 -757 -2.536580e-01 6.945079e-01 5.602937e-01 3.733461e-01 2.402808
1595876294.064000 -971 78 226 -49 -81 36 -7.211976e-01 -2.663597e-01 -5.615893e-01 3.058498e-01 71 863 -197 -452 -1096 683 464 -2.275957e-01 6.934071e-01 5.424700e-01 4.160686e-01 2.429308
1595876294.112000 -982 31 222 -10 -123 281 -7.277727e-01 -2.694053e-01 -5.555339e-01 2.985797e-01 64 814 -197 -452 -1096 683 464 -2.275957e-01 6.934071e-01 5.424700e-01 4.160686e-01 2.452590
1595876294.164000 -982 31 222 -10 -123 281 -7.277727e-01 -2.694053e-01 -5.555339e-01 2.985797e-01 78 814 -226 -437 -741 773 1456 -2.351693e-01 7.200953e-01 4.663713e-01 4.567887e-01 2.478540
1595876294.212000 -895 23 229 -47 -52 232 -7.342035e-01 -2.767988e-01 -5.476161e-01 2.905930e-01 61 945 -226 -437 -741 773 1456 -2.351693e-01 7.200953e-01 4.663713e-01 4.567887e-01 2.513275
1595876294.264000 -895 23 229 -47 -52 232 -7.342035e-01 -2.767988e-01 -5.476161e-01 2.905930e-01 66 945 -209 -548 -55 853 1339 -2.747794e-01 7.387672e-01 3.916003e-01 4.747299e-01 2.536365
1595876294.312000 -967 22 217 164 -54 -53 -7.373618e-01 -2.763047e-01 -5.451021e-01 2.877793e-01 72 942 -261 -548 -55 853 1339 -2.747794e-01 7.387672e-01 3.916003e-01 4.747299e-01 2.559867
1595876294.364000 -967 22 217 164 -54 -53 -7.373618e-01 -2.763047e-01 -5.451021e-01 2.877793e-01 71 942 -261 -75 795 -123 433 -3.258114e-01 7.332892e-01 3.485779e-01 4.843835e-01 2.590731
1595876294.412000 -922 66 219 38 19 -100 -7.337199e-01 -2.805238e-01 -5.437743e-01 2.954167e-01 70 1134 -157 -75 795 -123 433 -3.258114e-01 7.332892e-01 3.485779e-01 4.843835e-01 2.605715
1595876294.464000 -922 66 219 38 19 -100 -7.337199e-01 -2.805238e-01 -5.437743e-01 2.954167e-01 66 1134 -157 -377 2182 -966 -1470 -3.593053e-01 7.121410e-01 4.406021e-01 4.118553e-01 2.640040
1595876294.512000 -919 81 224 146 120 -207 -7.275541e-01 -2.799741e-01 -5.479239e-01 3.034120e-01 67 756 32 -377 2182 -966 -1470 -3.593053e-01 7.121410e-01 4.406021e-01 4.118553e-01 2.674961
1595876294.564000 -919 81 224 146 120 -207 -7.275541e-01 -2.799741e-01 -5.479239e-01 3.034120e-01 63 756 32 -180 -38 -25 -545 -3.761617e-01 6.604040e-01 5.117215e-01 4.006370e-01 2.703698
1595876294.612000 -966 118 221 83 156 -195 -7.189360e-01 -2.814953e-01 -5.535911e-01 3.121351e-01 78 901 32 -180 -38 -25 -545 -3.761617e-01 6.604040e-01 5.117215e-01 4.006370e-01 2.722860
1595876294.664000 -966 118 221 83 156 -195 -7.189360e-01 -2.814953e-01 -5.535911e-01 3.121351e-01 69 901 -202 -271 -1506 302 483 -3.398488e-01 6.853129e-01 4.798044e-01 4.296938e-01 2.759701
1595876294.712000 -942 90 247 -31 153 29 -7.121552e-01 -2.822254e-01 -5.612769e-01 3.132921e-01 73 922 -202 -271 -1506 302 483 -3.398488e-01 6.853129e-01 4.798044e-01 4.296938e-01 2.783359
1595876294.764000 -942 90 247 -31 153 29 -7.121552e-01 -2.822254e-01 -5.612769e-01 3.132921e-01 74 922 -243 -225 -191 -159 185 -3.252666e-01 7.048563e-01 4.387956e-01 4.525900e-01 2.802663
1595876294.812000 -954 31 246 128 -6 198 -7.131347e-01 -2.860107e-01 -5.615234e-01 3.071289e-01 71 869 -243 -225 -191 -159 185 -3.252666e-01 7.048563e-01 4.387956e-01 4.525900e-01 2.831159
1595876294.864000 -954 31 246 128 -6 198 -7.131347e-01 -2.860107e-01 -5.615234e-01 3.071289e-01 83 869 -153 -308 568 -16 -240 -3.371659e-01 6.996620e-01 4.544782e-01 4.361672e-01 2.844897
1595876294.912000 -982 57 217 -40 45 -28 -7.144721e-01 -2.906472e-01 -5.588337e-01 3.045631e-01 69 867 -153 -308 568 -16 -240 -3.371659e-01 6.996620e-01 4.544782e-01 4.361672e-01 2.865857
1595876294.964000 -982 57 217 -40 45 -28 -7.144721e-01 -2.906472e-01 -5.588337e-01 3.045631e-01 69 867 -149 -338 46 156 475 -3.549138e-01 6.957897e-01 4.546436e-01 4.280327e-01 2.881657
1595876295.012000 -937 106 221 -60 80 -131 -7.092223e-01 -2.871679e-01 -5.652416e-01 3.082859e-01 66 830 -149 -338 46 156 475 -3.549138e-01 6.957897e-01 4.546436e-01 4.280327e-01 2.909648
1595876295.064000 -937 106 221 -60 80 -131 -7.092223e-01 -2.871679e-01 -5.652416e-01 3.082859e-01 66 830 -164 -333 162 168 595 -3.724426e-01 7.072259e-01 4.357371e-01 4.138251e-01 2.943479
1595876295.112000 -972 98 173 139 -125 293 -7.121814e-01 -2.934666e-01 -5.586730e-01 3.075051e-01 66 1014 -148 -333 162 168 595 -3.724426e-01 7.072259e-01 4.357371e-01 4.138251e-01 2.970527
1595876295.164000 -972 98 173 139 -125 293 -7.121814e-01 -2.934666e-01 -5.586730e-01 3.075051e-01 67 1014 -148 -578 -166 -759 332 -3.886105e-01 7.150873e-01 4.213253e-01 4.001462e-01 3.029514
1595876295.212000 -931 87 154 86 -66 124 -7.170856e-01 -3.025443e-01 -5.497311e-01 3.033988e-01 68 883 -148 -578 -166 -759 332 -3.886105e-01 7.150873e-01 4.213253e-01 4.001462e-01 3.055248
1595876295.264000 -931 87 154 86 -66 124 -7.170856e-01 -3.025443e-01 -5.497311e-01 3.033988e-01 65 883 -168 -456 -1160 412 -302 -3.531599e-01 7.338476e-01 4.179812e-01 4.025389e-01 3.100564
1595876295.312000 -956 90 169 -75 73 -22 -7.148294e-01 -3.028504e-01 -5.537609e-01 3.010804e-01 73 847 -168 -456 -1160 412 -302 -3.531599e-01 7.338476e-01 4.179812e-01 4.025389e-01 3.147095
1595876295.364000 -956 90 169 -75 73 -22 -7.148294e-01 -3.028504e-01 -5.537609e-01 3.010804e-01 72 847 -188 -336 -1713 -1359 -251 -2.782004e-01 7.644713e-01 4.005158e-01 4.216341e-01 3.199398
1595876295.412000 -953 86 198 -73 79 -3 -7.133970e-01 -3.009109e-01 -5.584858e-01 2.976760e-01 67 1066 -188 -336 -1713 -1359 -251 -2.782004e-01 7.644713e-01 4.005158e-01 4.216341e-01 3.240192
1595876295.464000 -953 86 198 -73 79 -3 -7.133970e-01 -3.009109e-01 -5.584858e-01 2.976760e-01 69 1066 -330 -516 -1129 -246 -1345 -1.727230e-01 7.872628e-01 4.138027e-01 4.232628e-01 3.276288
1595876295.512000 -961 85 212 -81 81 -48 -7.122154e-01 -2.977889e-01 -5.630462e-01 2.950423e-01 67 845 -169 -516 -1129 -246 -1345 -1.727230e-01 7.872628e-01 4.138027e-01 4.232628e-01 3.294046
1595876295.612000 -958 93 209 -58 23 9 -7.120214e-01 -2.956482e-01 -5.649297e-01 2.940613e-01 64 845 -169 -441 -492 424 -354 -1.254871e-01 7.656791e-01 4.422567e-01 4.498861e-01 3.317784
1595876295.664000 -958 93 209 -58 23 9 -7.120214e-01 -2.956482e-01 -5.649297e-01 2.940613e-01 65 845 -169 -441 -492 424 -354 -1.254871e-01 7.656791e-01 4.422567e-01 4.498861e-01 3.317042
1595876295.712000 -951 83 199 -58 -8 12 -7.138727e-01 -2.930321e-01 -5.653120e-01 2.914451e-01 64 897 -246 -476 -926 412 1127 -1.247562e-01 7.745995e-01 3.943493e-01 4.784560e-01 3.308362
1595876295.764000 -951 83 199 -58 -8 12 -7.138727e-01 -2.930321e-01 -5.653120e-01 2.914451e-01 65 897 -279 -521 182 555 583 -1.410478e-01 7.796386e-01 3.423354e-01 5.050501e-01 3.297662
1595876295.812000 -956 80 182 -86 -55 26 -7.166481e-01 -2.894426e-01 -5.653957e-01 2.880387e-01 66 941 -183 -521 182 555 583 -1.410478e-01 7.796386e-01 3.423354e-01 5.050501e-01 3.279891
1595876295.864000 -956 80 182 -86 -55 26 -7.166481e-01 -2.894426e-01 -5.653957e-01 2.880387e-01 73 941 -183 -588 987 373 548 -1.976880e-01 7.643243e-01 3.397743e-01 5.111568e-01 3.267693
1595876295.912000 -978 88 160 -77 -32 26 -7.188195e-01 -2.872959e-01 -5.650701e-01 2.854038e-01 76 796 -183 -588 987 373 548 -1.976880e-01 7.643243e-01 3.397743e-01 5.111568e-01 3.253905
